gyr_x,gyr_y,gyr_z,acc_x,acc_y,acc_z
0.0063915853,-0.057524268,-0.049002152,9.8042555,-0.044292733,-0.4141969
0.0074568493,-0.05858953,-0.050067417,9.813833,-0.045489833,-0.4285621
0.0063915853,-0.05858953,-0.049002152,9.80665,-0.045489833,-0.47046062
0.0074568493,-0.052197944,-0.04793689,9.800665,-0.050278235,-0.39264908
0.010652642,-0.05858953,-0.04793689,9.816227,-0.047884032,-0.37948096
0.011717906,-0.06285059,-0.046871625,9.80665,-0.044292733,-0.40222588
0.012783171,-0.06391585,-0.04580636,9.809045,-0.047884032,-0.4165911
0.024501076,-0.06498112,-0.042610567,9.809045,-0.079008654,-0.51834464
0.057524268,-0.061785325,-0.04048004,9.799467,-0.033518825,-0.36870706
0.06924217,-0.06817691,-0.041545305,9.799467,-0.0023942017,-0.2705448
0.057524268,-0.08202534,-0.04793689,9.79827,-0.015562311,-0.41060558
0.04048004,-0.08096008,-0.049002152,9.825804,-0.03232172,-0.50876784
0.03302319,-0.07030743,-0.049002152,9.80665,-0.044292733,-0.41060558
0.043675832,-0.07030743,-0.044741098,9.805453,-0.044292733,-0.39384618
0.054328475,-0.07030743,-0.046871625,9.805453,-0.047884032,-0.4201824
0.07350323,-0.07350323,-0.04580636,9.811439,-0.049081136,-0.37469256
0.085221134,-0.07882955,-0.04580636,9.800665,-0.05746084,-0.38187516
0.0713727,-0.08309061,-0.042610567,9.824607,-0.044292733,-0.36631286
0.049002152,-0.07882955,-0.041545305,9.817424,-0.02873042,-0.35314476
0.024501076,-0.07989482,-0.042610567,9.818622,-0.04189853,-0.34476504
0.004261057,-0.07882955,-0.044741098,9.824607,-0.04309563,-0.35075054
0.004261057,-0.07882955,-0.044741098,9.824607,-0.04309563,-0.35075054
-0.038349513,-0.07882955,-0.046871625,9.794679,-0.05746084,-0.24779987
-0.038349513,-0.07882955,-0.046871625,9.794679,-0.05746084,-0.24779987
-0.061785325,-0.09906957,-0.04793689,9.7958765,-0.06943185,-0.32561144
-0.06498112,-0.10333063,-0.04793689,9.79827,-0.050278235,-0.2801216
-0.061785325,-0.10972221,-0.050067417,9.822212,-0.05626374,-0.39624038
-0.052197944,-0.10652642,-0.04793689,9.829395,-0.05626374,-0.4225766
-0.042610567,-0.10439589,-0.046871625,9.824607,-0.04309563,-0.34715924
-0.04048004,-0.10439589,-0.049002152,9.803059,-0.04309563,-0.39384618
-0.037284248,-0.10759168,-0.046871625,9.8042555,-0.044292733,-0.39863458
-0.038349513,-0.098004304,-0.046871625,9.8042555,-0.045489833,-0.3196259
-0.039414775,-0.09480851,-0.046871625,9.817424,-0.04309563,-0.32680854
-0.039414775,-0.09480851,-0.04793689,9.821015,-0.049081136,-0.3866636
-0.035153717,-0.089482196,-0.044741098,9.813833,-0.047884032,-0.35673606
-0.034088455,-0.08415587,-0.042610567,9.810242,-0.04070143,-0.23463176
-0.034088455,-0.08415587,-0.042610567,9.810242,-0.04070143,-0.23463176
-0.046871625,-0.098004304,-0.046871625,9.809045,-0.044292733,-0.30526072
-0.046871625,-0.1012001,-0.04580636,9.811439,-0.044292733,-0.28491
-0.044741098,-0.10333063,-0.043675832,9.809045,-0.044292733,-0.3172317
-0.041545305,-0.098004304,-0.04580636,9.813833,-0.07182605,-0.46567222
-0.018109491,-0.04048004,-0.057524268,9.700109,-1.0881647,-1.9716251
0.10652642,0.09054746,-0.027696868,9.949105,0.17597382,-1.2330139
0.15126751,0.16405068,0.0031957927,9.7803135,-0.22146365,-0.33877954
0.113983266,0.18642123,0.022370549,9.866506,0.17597382,0.23343466
0.06711164,0.12463591,-0.009587378,9.842564,0.17238252,0.4345476
0.026631605,0.029827397,-0.044741098,9.822212,0.11372458,0.29688102
-0.013848434,-0.04793689,-0.07030743,9.776723,-0.12689269,-0.23223756
-0.021305284,-0.07030743,-0.06924217,9.781511,-0.20231004,-0.5686229
-0.004261057,-0.054328475,-0.054328475,9.8042555,-0.11851298,-0.46926352
0.0063915853,-0.041545305,-0.049002152,9.836577,-0.021547815,-0.17477672
0.0063915853,-0.041545305,-0.049002152,9.836577,-0.021547815,-0.17477672
-0.011717906,-0.06604638,-0.06072006,9.813833,-0.12689269,-0.5470751
0.0074568493,-0.038349513,-0.04580636,9.80665,-0.093373865,-0.51355624
0.0074568493,-0.038349513,-0.04580636,9.80665,-0.093373865,-0.51355624
0.0031957927,-0.04793689,-0.050067417,9.811439,-0.011971008,-0.20709845
-0.009587378,-0.06285059,-0.057524268,9.828198,-0.01436521,-0.2825158
-0.025566341,-0.076699026,-0.061785325,9.832987,-0.009576807,-0.29328972
-0.036218982,-0.087351665,-0.06711164,9.812635,-0.04309563,-0.34715924
-0.038349513,-0.089482196,-0.07030743,9.811439,-0.044292733,-0.38187516
-0.036218982,-0.089482196,-0.07030743,9.816227,-0.047884032,-0.4249708
-0.028762134,-0.085221134,-0.06711164,9.813833,-0.09935937,-0.51834464
-0.014913699,-0.07030743,-0.059654795,9.785102,-0.11731588,-0.51834464
0.0031957927,-0.05326321,-0.050067417,9.811439,-0.062249243,-0.4165911
0.0063915853,-0.051132683,-0.044741098,9.838972,0.007182605,-0.2633622
0.0010652642,-0.059654795,-0.049002152,9.811439,-0.08259996,-0.39145198
0.008522114,-0.055393737,-0.04793689,9.7863,-0.12928689,-0.32561144
0.010652642,-0.06285059,-0.052197944,9.810242,-0.044292733,-0.32561144
0.011717906,-0.06604638,-0.052197944,9.809045,-0.061052144,-0.37708676
0.019174756,-0.06498112,-0.050067417,9.834184,-0.029927522,-0.30166942
0.021305284,-0.074568495,-0.059654795,9.703699,-0.5363012,-0.011971008
0.019174756,-0.09906957,-0.061785325,9.7803135,-0.21188685,-0.6500258
0.022370549,-0.076699026,-0.06072006,9.76954,-0.23822308,-0.59974754
0.025566341,-0.04793689,-0.046871625,9.800665,-0.12569559,-0.5386954
0.025566341,-0.025566341,-0.030892663,9.781511,-0.08259996,-0.29448682
0.017044228,-0.031957924,-0.03302319,9.794679,-0.01436521,0.027533319
-0.0021305284,-0.06498112,-0.052197944,9.800665,-0.08619126,-0.35314476
-0.005326321,-0.06924217,-0.05326321,9.816227,-0.051475335,-0.33039984
0.009587378,-0.06924217,-0.050067417,9.810242,-0.027533319,-0.20590134
0.008522114,-0.074568495,-0.052197944,9.7958765,-0.10534488,-0.48602295
0.025566341,-0.06072006,-0.046871625,9.797073,-0.11851298,-0.16879122
0.051132683,-0.06924217,-0.04048004,9.836577,0.05746084,-0.088585466
0.043675832,-0.09374325,-0.04793689,9.824607,-0.0047884034,-0.50517654
0.042610567,-0.0862864,-0.04793689,9.799467,-0.15562311,-0.5363012
0.049002152,-0.06604638,-0.042610567,9.834184,0.08140286,-0.20231004
0.037284248,-0.07350323,-0.051132683,9.825804,-0.045489833,-0.40102878
0.025566341,-0.0713727,-0.052197944,9.8198185,-0.050278235,-0.4441244
0.021305284,-0.05858953,-0.049002152,9.824607,-0.008379706,-0.18076223
0.012783171,-0.072437964,-0.052197944,9.807847,-0.047884032,-0.30406362
0.0074568493,-0.076699026,-0.05326321,9.80665,-0.06943185,-0.46567222
0.008522114,-0.06498112,-0.049002152,9.810242,-0.09696517,-0.4417302
0.018109491,-0.07563376,-0.050067417,9.774328,-0.24899697,-0.38307226
0.034088455,-0.072437964,-0.04793689,9.825804,-0.04070143,-0.37349546
0.030892663,-0.06285059,-0.049002152,9.797073,-0.1352724,-0.45489833
0.039414775,-0.05326321,-0.04580636,9.842564,-0.0047884034,-0.24899697
0.034088455,-0.056459002,-0.046871625,9.816227,-0.045489833,-0.22505496
0.023435812,-0.06391585,-0.051132683,9.811439,-0.077811554,-0.32800564
0.021305284,-0.06285059,-0.049002152,9.8042555,-0.049081136,-0.3196259
0.024501076,-0.061785325,-0.049002152,9.8042555,-0.077811554,-0.40342298
0.025566341,-0.054328475,-0.049002152,9.797073,-0.05746084,-0.30286652
0.041545305,-0.05858953,-0.046871625,9.818622,-0.021547815,-0.16400282
0.038349513,-0.07030743,-0.051132683,9.8042555,-0.088585466,-0.3842694
0.03302319,-0.06498112,-0.050067417,9.811439,-0.049081136,-0.36631286
0.030892663,-0.06817691,-0.050067417,9.818622,-0.020350715,-0.19393034
0.031957924,-0.07776429,-0.049002152,9.811439,-0.045489833,-0.36870706
0.017044228,-0.0713727,-0.04793689,9.849746,-0.053869538,-0.47524905
0.015978962,-0.055393737,-0.046871625,9.81503,-0.04189853,-0.2908955
0.010652642,-0.05326321,-0.04793689,9.818622,-0.044292733,-0.30047232
0.010652642,-0.052197944,-0.046871625,9.81503,-0.045489833,-0.31483752
0.02024002,-0.052197944,-0.04580636,9.8198185,-0.04309563,-0.20231004
0.06924217,-0.06285059,-0.042610567,9.85214,0.1436521,-0.21547815
0.034088455,-0.07882955,-0.049002152,9.7863,-0.22505496,-0.6811504
0.028762134,-0.050067417,-0.044741098,9.792285,-0.04309563,-0.10175357
0.02024002,-0.055393737,-0.04793689,9.810242,-0.061052144,-0.32920274
0.013848434,-0.057524268,-0.050067417,9.829395,-0.038307227,-0.2693477
0.015978962,-0.055393737,-0.049002152,9.816227,-0.044292733,-0.2813187
0.015978962,-0.056459002,-0.049002152,9.821015,-0.074220255,-0.32561144
0.014913699,-0.054328475,-0.046871625,9.809045,-0.051475335,-0.30765492
0.012783171,-0.05326321,-0.046871625,9.813833,-0.047884032,-0.2753332
0.009587378,-0.052197944,-0.04793689,9.794679,-0.055066638,-0.29209262
0.0074568493,-0.05326321,-0.050067417,9.801862,-0.05626374,-0.2741361
0.0074568493,-0.052197944,-0.050067417,9.8198185,-0.05746084,-0.2705448
0.0063915853,-0.054328475,-0.049002152,9.816227,-0.06464344,-0.30406362
0.0074568493,-0.054328475,-0.04793689,9.827001,-0.050278235,-0.25258827
0.008522114,-0.051132683,-0.04793689,9.813833,-0.047884032,-0.28491
0.011717906,-0.052197944,-0.04793689,9.811439,-0.05626374,-0.29328972
0.011717906,-0.051132683,-0.04793689,9.799467,-0.044292733,-0.2645593
0.010652642,-0.052197944,-0.049002152,9.817424,-0.047884032,-0.23582886
0.015978962,-0.054328475,-0.049002152,9.822212,-0.045489833,-0.30047232
0.02024002,-0.050067417,-0.046871625,9.811439,-0.04189853,-0.23343466
0.018109491,-0.054328475,-0.046871625,9.79827,-0.045489833,-0.18794483
0.037284248,-0.06498112,-0.051132683,9.801862,0.0035913025,-0.10175357
0.044741098,-0.08096008,-0.055393737,9.825804,-0.07062895,-0.45968673
0.037284248,-0.07030743,-0.051132683,9.809045,-0.062249243,-0.45729253
0.029827397,-0.05326321,-0.046871625,9.807847,-0.04309563,-0.19393034
0.019174756,-0.055393737,-0.046871625,9.829395,-0.044292733,-0.2765303
0.014913699,-0.054328475,-0.04793689,9.831789,-0.04309563,-0.2873042
0.010652642,-0.050067417,-0.04793689,9.82341,-0.04309563,-0.24061728
0.005326321,-0.051132683,-0.049002152,9.805453,-0.046686932,-0.2741361
0.0063915853,-0.05326321,-0.049002152,9.81503,-0.044292733,-0.2825158
0.009587378,-0.052197944,-0.050067417,9.811439,-0.045489833,-0.29209262
0.009587378,-0.052197944,-0.049002152,9.8042555,-0.051475335,-0.30645782
0.010652642,-0.052197944,-0.049002152,9.807847,-0.049081136,-0.2753332
0.009587378,-0.05326321,-0.051132683,9.817424,-0.062249243,-0.30047232
0.008522114,-0.052197944,-0.049002152,9.799467,-0.06464344,-0.29328972
0.008522114,-0.05326321,-0.046871625,9.813833,-0.061052144,-0.2873042
0.009587378,-0.051132683,-0.04793689,9.801862,-0.055066638,-0.29807812
0.008522114,-0.051132683,-0.04793689,9.816227,-0.06344634,-0.30885202
0.009587378,-0.050067417,-0.049002152,9.812635,-0.055066638,-0.29807812
0.008522114,-0.051132683,-0.049002152,9.807847,-0.053869538,-0.2765303
0.008522114,-0.051132683,-0.049002152,9.817424,-0.05626374,-0.2741361
0.010652642,-0.05326321,-0.04793689,9.831789,-0.07062895,-0.3172317
0.010652642,-0.052197944,-0.049002152,9.827001,-0.047884032,-0.2681506
0.008522114,-0.052197944,-0.049002152,9.813833,-0.055066638,-0.29927522
0.009587378,-0.052197944,-0.049002152,9.813833,-0.045489833,-0.2633622
0.008522114,-0.051132683,-0.049002152,9.813833,-0.046686932,-0.2681506
0.0074568493,-0.054328475,-0.049002152,9.822212,-0.047884032,-0.29448682
0.008522114,-0.05326321,-0.050067417,9.818622,-0.047884032,-0.2837129
0.008522114,-0.05326321,-0.049002152,9.812635,-0.046686932,-0.260968
0.0074568493,-0.052197944,-0.049002152,9.8042555,-0.046686932,-0.2753332
0.010652642,-0.05326321,-0.049002152,9.797073,-0.047884032,-0.2861071
0.012783171,-0.052197944,-0.04793689,9.811439,-0.044292733,-0.2621651
0.012783171,-0.05326321,-0.049002152,9.794679,-0.045489833,-0.2789245
0.013848434,-0.054328475,-0.049002152,9.797073,-0.055066638,-0.2813187
0.014913699,-0.054328475,-0.050067417,9.809045,-0.047884032,-0.25258827
0.015978962,-0.054328475,-0.04793689,9.811439,-0.045489833,-0.2681506
0.014913699,-0.052197944,-0.04793689,9.8198185,-0.046686932,-0.23223756
0.012783171,-0.05326321,-0.04793689,9.818622,-0.045489833,-0.24899697
0.011717906,-0.05326321,-0.04793689,9.80665,-0.047884032,-0.2681506
0.012783171,-0.052197944,-0.049002152,9.818622,-0.049081136,-0.28491
0.011717906,-0.051132683,-0.04793689,9.803059,-0.046686932,-0.25139117
0.011717906,-0.052197944,-0.046871625,9.8042555,-0.046686932,-0.25857377
0.008522114,-0.051132683,-0.04793689,9.799467,-0.047884032,-0.2657564
0.0063915853,-0.051132683,-0.049002152,9.811439,-0.046686932,-0.24660277
0.0074568493,-0.05326321,-0.049002152,9.811439,-0.053869538,-0.2789245
0.008522114,-0.055393737,-0.049002152,9.81503,-0.053869538,-0.2669535
0.009587378,-0.055393737,-0.049002152,9.807847,-0.05626374,-0.2681506
0.008522114,-0.052197944,-0.049002152,9.7863,-0.047884032,-0.2765303
0.008522114,-0.050067417,-0.049002152,9.807847,-0.045489833,-0.2633622
0.008522114,-0.051132683,-0.049002152,9.82341,-0.04309563,-0.2681506
0.009587378,-0.052197944,-0.049002152,9.810242,-0.044292733,-0.2681506
0.009587378,-0.052197944,-0.049002152,9.810242,-0.044292733,-0.2741361
0.010652642,-0.051132683,-0.049002152,9.81503,-0.044292733,-0.24420857
0.009587378,-0.05326321,-0.049002152,9.805453,-0.044292733,-0.260968
0.009587378,-0.05326321,-0.049002152,9.8198185,-0.044292733,-0.2896984
0.0063915853,-0.054328475,-0.049002152,9.81503,-0.045489833,-0.2621651
0.0063915853,-0.054328475,-0.04793689,9.82341,-0.044292733,-0.2669535
0.008522114,-0.054328475,-0.04793689,9.816227,-0.050278235,-0.2885013
0.008522114,-0.050067417,-0.049002152,9.824607,-0.050278235,-0.2861071
0.009587378,-0.054328475,-0.04580636,9.805453,-0.044292733,-0.2645593
0.008522114,-0.05326321,-0.049002152,9.8042555,-0.044292733,-0.2873042
0.009587378,-0.052197944,-0.04793689,9.787497,-0.047884032,-0.25019407
0.005326321,-0.054328475,-0.050067417,9.822212,-0.05626374,-0.2885013
0.005326321,-0.055393737,-0.049002152,9.81503,-0.05267244,-0.28491
0.0063915853,-0.054328475,-0.050067417,9.827001,-0.053869538,-0.28491
0.009587378,-0.054328475,-0.050067417,9.8198185,-0.06464344,-0.29927522
0.009587378,-0.052197944,-0.04793689,9.818622,-0.06703765,-0.2896984
0.010652642,-0.054328475,-0.049002152,9.82341,-0.05267244,-0.30166942
0.010652642,-0.052197944,-0.049002152,9.805453,-0.046686932,-0.2801216
0.012783171,-0.052197944,-0.049002152,9.800665,-0.050278235,-0.2861071
0.014913699,-0.050067417,-0.04793689,9.799467,-0.05746084,-0.2837129
0.011717906,-0.050067417,-0.049002152,9.812635,-0.044292733,-0.25019407
0.011717906,-0.052197944,-0.049002152,9.801862,-0.047884032,-0.2657564
0.010652642,-0.052197944,-0.049002152,9.79827,-0.047884032,-0.23582886
0.009587378,-0.052197944,-0.050067417,9.812635,-0.044292733,-0.24899697
0.008522114,-0.054328475,-0.050067417,9.822212,-0.045489833,-0.25378537
0.0074568493,-0.05326321,-0.049002152,9.812635,-0.047884032,-0.25617957
0.010652642,-0.055393737,-0.04793689,9.810242,-0.045489833,-0.25498247
0.009587378,-0.055393737,-0.050067417,9.807847,-0.045489833,-0.2633622
0.009587378,-0.054328475,-0.049002152,9.80665,-0.045489833,-0.25498247
0.010652642,-0.054328475,-0.049002152,9.79827,-0.046686932,-0.2693477
0.009587378,-0.055393737,-0.04793689,9.822212,-0.044292733,-0.25378537
0.010652642,-0.055393737,-0.049002152,9.80665,-0.045489833,-0.25857377
0.0074568493,-0.055393737,-0.049002152,9.8198185,-0.044292733,-0.25258827
0.005326321,-0.055393737,-0.049002152,9.816227,-0.046686932,-0.24181437
0.0031957927,-0.055393737,-0.051132683,9.810242,-0.053869538,-0.2621651
0.005326321,-0.057524268,-0.051132683,9.82341,-0.05746084,-0.2657564
0.011717906,-0.057524268,-0.050067417,9.80665,-0.04309563,-0.18914193
0.02024002,-0.06391585,-0.051132683,9.821015,-0.06464344,-0.2813187
0.02024002,-0.06498112,-0.051132683,9.812635,-0.073023155,-0.33997664
0.018109491,-0.059654795,-0.04793689,9.821015,-0.05267244,-0.29209262
0.017044228,-0.056459002,-0.049002152,9.812635,-0.050278235,-0.2645593
0.011717906,-0.057524268,-0.049002152,9.822212,-0.051475335,-0.2741361
0.0074568493,-0.054328475,-0.050067417,9.800665,-0.05267244,-0.2741361
0.0063915853,-0.052197944,-0.050067417,9.822212,-0.055066638,-0.2741361
0.008522114,-0.054328475,-0.049002152,9.801862,-0.05865794,-0.2896984
0.009587378,-0.05326321,-0.049002152,9.812635,-0.05267244,-0.2645593
0.009587378,-0.05326321,-0.046871625,9.8198185,-0.049081136,-0.2633622
0.010652642,-0.05326321,-0.04793689,9.818622,-0.045489833,-0.2621651
0.010652642,-0.052197944,-0.049002152,9.81503,-0.044292733,-0.25737667
0.010652642,-0.054328475,-0.04793689,9.809045,-0.046686932,-0.2681506
0.010652642,-0.05326321,-0.04793689,9.8042555,-0.044292733,-0.2669535
0.008522114,-0.05326321,-0.049002152,9.801862,-0.044292733,-0.2681506
0.008522114,-0.052197944,-0.049002152,9.809045,-0.044292733,-0.2693477
0.009587378,-0.051132683,-0.049002152,9.807847,-0.044292733,-0.25258827
0.010652642,-0.052197944,-0.04793689,9.817424,-0.044292733,-0.25258827
0.012783171,-0.05326321,-0.04793689,9.822212,-0.046686932,-0.22744916
0.013848434,-0.052197944,-0.049002152,9.818622,-0.044292733,-0.22984336
0.012783171,-0.05326321,-0.04793689,9.803059,-0.045489833,-0.25139117
0.012783171,-0.054328475,-0.050067417,9.811439,-0.045489833,-0.24660277
0.009587378,-0.054328475,-0.050067417,9.809045,-0.053869538,-0.2633622
0.008522114,-0.054328475,-0.049002152,9.80665,-0.062249243,-0.2765303
0.009587378,-0.054328475,-0.049002152,9.8042555,-0.050278235,-0.25258827
0.010652642,-0.05326321,-0.050067417,9.8042555,-0.051475335,-0.2681506
0.009587378,-0.05326321,-0.049002152,9.824607,-0.050278235,-0.25617957
0.0074568493,-0.05326321,-0.049002152,9.81503,-0.05865794,-0.29209262
0.0074568493,-0.05326321,-0.049002152,9.827001,-0.05267244,-0.25977087
0.009587378,-0.052197944,-0.049002152,9.822212,-0.05626374,-0.25378537
0.008522114,-0.05326321,-0.04793689,9.821015,-0.051475335,-0.260968
0.0074568493,-0.052197944,-0.04793689,9.8042555,-0.051475335,-0.24301147
0.0074568493,-0.05326321,-0.049002152,9.805453,-0.047884032,-0.2621651
0.008522114,-0.051132683,-0.051132683,9.812635,-0.049081136,-0.23942018
0.0074568493,-0.054328475,-0.049002152,9.817424,-0.046686932,-0.24899697
0.0063915853,-0.05326321,-0.051132683,9.82341,-0.044292733,-0.25737667
0.008522114,-0.05326321,-0.049002152,9.818622,-0.044292733,-0.24301147
0.008522114,-0.054328475,-0.049002152,9.816227,-0.045489833,-0.25737667
0.008522114,-0.05326321,-0.04793689,9.807847,-0.045489833,-0.24899697
0.010652642,-0.054328475,-0.046871625,9.812635,-0.044292733,-0.25378537
0.011717906,-0.05326321,-0.04793689,9.812635,-0.044292733,-0.25977087
0.012783171,-0.052197944,-0.049002152,9.817424,-0.039504327,-0.24660277
0.010652642,-0.05326321,-0.04793689,9.82341,-0.046686932,-0.25378537
0.009587378,-0.052197944,-0.04793689,9.817424,-0.044292733,-0.24301147
0.009587378,-0.05326321,-0.050067417,9.807847,-0.044292733,-0.24061728
0.010652642,-0.05326321,-0.049002152,9.816227,-0.045489833,-0.24061728
0.010652642,-0.05326321,-0.049002152,9.809045,-0.055066638,-0.2621651
0.008522114,-0.051132683,-0.049002152,9.812635,-0.050278235,-0.25737667
0.009587378,-0.052197944,-0.050067417,9.810242,-0.050278235,-0.2693477
0.008522114,-0.055393737,-0.049002152,9.825804,-0.045489833,-0.24660277
0.009587378,-0.05326321,-0.04793689,9.825804,-0.051475335,-0.2621651
0.009587378,-0.054328475,-0.04793689,9.830592,-0.046686932,-0.25977087
0.009587378,-0.054328475,-0.049002152,9.830592,-0.050278235,-0.2633622
0.008522114,-0.05326321,-0.046871625,9.816227,-0.047884032,-0.25378537
0.008522114,-0.054328475,-0.046871625,9.807847,-0.047884032,-0.2825158
0.008522114,-0.054328475,-0.046871625,9.807847,-0.047884032,-0.2825158
0.008522114,-0.054328475,-0.046871625,9.8042555,-0.051475335,-0.2753332
0.010652642,-0.055393737,-0.04580636,9.81503,-0.051475335,-0.2681506
0.008522114,-0.054328475,-0.046871625,9.825804,-0.047884032,-0.25617957
0.008522114,-0.054328475,-0.046871625,9.824607,-0.044292733,-0.23702596
0.008522114,-0.055393737,-0.04793689,9.81503,-0.044292733,-0.24779987
0.008522114,-0.055393737,-0.04793689,9.81503,-0.044292733,-0.24779987
0.009587378,-0.05326321,-0.04793689,9.812635,-0.046686932,-0.25258827
0.009587378,-0.05326321,-0.04793689,9.812635,-0.046686932,-0.25258827
0.011717906,-0.052197944,-0.046871625,9.800665,-0.045489833,-0.2645593
0.009587378,-0.054328475,-0.04793689,9.812635,-0.044292733,-0.23463176
0.009587378,-0.054328475,-0.04793689,9.812635,-0.044292733,-0.23463176
0.008522114,-0.055393737,-0.049002152,9.816227,-0.049081136,-0.2813187
0.009587378,-0.054328475,-0.04793689,9.82341,-0.044292733,-0.25977087
0.009587378,-0.052197944,-0.04793689,9.812635,-0.044292733,-0.24899697
0.008522114,-0.052197944,-0.04793689,9.82341,-0.04309563,-0.24301147
0.009587378,-0.05326321,-0.046871625,9.812635,-0.045489833,-0.25498247
0.008522114,-0.054328475,-0.04793689,9.810242,-0.049081136,-0.25617957
0.010652642,-0.054328475,-0.046871625,9.811439,-0.045489833,-0.24540567
0.010652642,-0.054328475,-0.04793689,9.812635,-0.047884032,-0.25139117
0.008522114,-0.05326321,-0.04793689,9.813833,-0.047884032,-0.25857377
0.0074568493,-0.05326321,-0.04793689,9.828198,-0.055066638,-0.25977087
0.008522114,-0.055393737,-0.046871625,9.811439,-0.047884032,-0.2645593
0.011717906,-0.055393737,-0.046871625,9.816227,-0.055066638,-0.2669535
0.010652642,-0.05326321,-0.046871625,9.801862,-0.049081136,-0.2657564
0.010652642,-0.054328475,-0.046871625,9.82341,-0.05626374,-0.2765303
0.009587378,-0.05326321,-0.04580636,9.807847,-0.045489833,-0.25737667
0.0074568493,-0.052197944,-0.049002152,9.80665,-0.045489833,-0.25019407
0.0074568493,-0.05326321,-0.046871625,9.828198,-0.047884032,-0.2621651
0.009587378,-0.054328475,-0.044741098,9.811439,-0.049081136,-0.2681506
0.008522114,-0.05326321,-0.04793689,9.812635,-0.045489833,-0.23822308
0.008522114,-0.05326321,-0.049002152,9.812635,-0.044292733,-0.24660277
0.0074568493,-0.051132683,-0.046871625,9.824607,-0.044292733,-0.23343466
0.0063915853,-0.054328475,-0.04793689,9.834184,-0.045489833,-0.24061728
0.0074568493,-0.056459002,-0.046871625,9.810242,-0.050278235,-0.2705448
0.010652642,-0.054328475,-0.046871625,9.8042555,-0.044292733,-0.23104046
0.010652642,-0.054328475,-0.04793689,9.810242,-0.045489833,-0.25019407
0.008522114,-0.05326321,-0.04793689,9.807847,-0.044292733,-0.23702596
0.005326321,-0.052197944,-0.04580636,9.813833,-0.045489833,-0.22385786
0.008522114,-0.055393737,-0.04793689,9.817424,-0.046686932,-0.25617957
0.009587378,-0.055393737,-0.04580636,9.829395,-0.049081136,-0.2645593
0.009587378,-0.05326321,-0.046871625,9.807847,-0.050278235,-0.25617957
0.010652642,-0.05326321,-0.04580636,9.803059,-0.049081136,-0.25737667
0.011717906,-0.054328475,-0.04580636,9.813833,-0.046686932,-0.24779987
0.010652642,-0.05326321,-0.04793689,9.818622,-0.050278235,-0.25139117
0.010652642,-0.052197944,-0.049002152,9.817424,-0.049081136,-0.24779987
0.009587378,-0.052197944,-0.04793689,9.816227,-0.05746084,-0.2669535
0.008522114,-0.05326321,-0.046871625,9.817424,-0.045489833,-0.23582886
0.0074568493,-0.054328475,-0.046871625,9.8198185,-0.050278235,-0.2621651
0.009587378,-0.054328475,-0.04793689,9.805453,-0.059855044,-0.2693477
0.010652642,-0.05326321,-0.046871625,9.831789,-0.045489833,-0.24540567
0.009587378,-0.054328475,-0.046871625,9.816227,-0.051475335,-0.25857377
0.009587378,-0.055393737,-0.046871625,9.809045,-0.044292733,-0.24540567
0.008522114,-0.055393737,-0.046871625,9.81503,-0.046686932,-0.25617957
0.0074568493,-0.055393737,-0.04793689,9.822212,-0.046686932,-0.24899697
0.0063915853,-0.05326321,-0.04793689,9.830592,-0.05267244,-0.2621651
0.0074568493,-0.055393737,-0.04793689,9.818622,-0.045489833,-0.25378537
0.0063915853,-0.056459002,-0.04580636,9.816227,-0.045489833,-0.2741361
0.0074568493,-0.054328475,-0.046871625,9.801862,-0.044292733,-0.24301147
0.0074568493,-0.05326321,-0.04793689,9.805453,-0.046686932,-0.24061728
0.0074568493,-0.055393737,-0.046871625,9.81503,-0.044292733,-0.24660277
0.0074568493,-0.054328475,-0.046871625,9.81503,-0.045489833,-0.23942018
0.008522114,-0.055393737,-0.046871625,9.813833,-0.046686932,-0.24420857
0.0074568493,-0.054328475,-0.046871625,9.811439,-0.044292733,-0.25737667
0.009587378,-0.05326321,-0.04793689,9.813833,-0.049081136,-0.25617957
0.008522114,-0.052197944,-0.049002152,9.816227,-0.045489833,-0.24779987
0.0074568493,-0.05326321,-0.04793689,9.811439,-0.046686932,-0.25258827
0.005326321,-0.052197944,-0.04793689,9.81503,-0.050278235,-0.25258827
0.005326321,-0.05326321,-0.049002152,9.812635,-0.05267244,-0.2633622
0.005326321,-0.052197944,-0.046871625,9.827001,-0.051475335,-0.25019407
0.0063915853,-0.05326321,-0.04793689,9.807847,-0.050278235,-0.2705448
0.005326321,-0.05326321,-0.050067417,9.800665,-0.047884032,-0.2705448
0.0074568493,-0.052197944,-0.04793689,9.816227,-0.05267244,-0.2645593
0.004261057,-0.051132683,-0.050067417,9.8042555,-0.049081136,-0.25498247
0.0074568493,-0.05326321,-0.050067417,9.810242,-0.053869538,-0.2633622
0.008522114,-0.052197944,-0.04793689,9.79827,-0.047884032,-0.24420857
0.008522114,-0.057524268,-0.04793689,9.824607,-0.050278235,-0.28491
0.008522114,-0.054328475,-0.04793689,9.78989,-0.05746084,-0.24779987
0.008522114,-0.055393737,-0.049002152,9.825804,-0.044292733,-0.25737667
0.0074568493,-0.056459002,-0.049002152,9.811439,-0.044292733,-0.24540567
0.0074568493,-0.054328475,-0.049002152,9.811439,-0.04309563,-0.23223756
0.0074568493,-0.055393737,-0.050067417,9.812635,-0.044292733,-0.2681506
0.0074568493,-0.05326321,-0.050067417,9.834184,-0.044292733,-0.260968
0.010652642,-0.054328475,-0.049002152,9.822212,-0.047884032,-0.25737667
0.012783171,-0.054328475,-0.049002152,9.803059,-0.044292733,-0.22864626
0.012783171,-0.056459002,-0.051132683,9.813833,-0.046686932,-0.22625206
0.011717906,-0.056459002,-0.052197944,9.805453,-0.051475335,-0.2705448
0.009587378,-0.056459002,-0.051132683,9.811439,-0.051475335,-0.2777274
0.009587378,-0.056459002,-0.050067417,9.8198185,-0.050278235,-0.25258827
0.012783171,-0.05858953,-0.050067417,9.803059,-0.045489833,-0.24779987
0.013848434,-0.057524268,-0.049002152,9.817424,-0.049081136,-0.23463176
0.012783171,-0.05858953,-0.050067417,9.822212,-0.045489833,-0.23822308
0.014913699,-0.06072006,-0.052197944,9.805453,-0.049081136,-0.23942018
0.015978962,-0.061785325,-0.051132683,9.803059,-0.061052144,-0.2777274
0.015978962,-0.061785325,-0.050067417,9.794679,-0.061052144,-0.29209262
0.015978962,-0.059654795,-0.050067417,9.79827,-0.047884032,-0.2669535
0.012783171,-0.057524268,-0.049002152,9.81503,-0.053869538,-0.29209262
0.012783171,-0.054328475,-0.049002152,9.8198185,-0.045489833,-0.24181437
0.010652642,-0.054328475,-0.049002152,9.82341,-0.047884032,-0.24420857
0.009587378,-0.054328475,-0.04793689,9.835381,-0.05267244,-0.2621651
0.009587378,-0.054328475,-0.04793689,9.818622,-0.046686932,-0.25617957
0.009587378,-0.054328475,-0.04793689,9.811439,-0.044292733,-0.24420857
0.009587378,-0.052197944,-0.049002152,9.807847,-0.04309563,-0.23104046
0.0074568493,-0.052197944,-0.049002152,9.805453,-0.044292733,-0.23702596
0.008522114,-0.052197944,-0.049002152,9.824607,-0.044292733,-0.23582886
0.008522114,-0.05326321,-0.04793689,9.812635,-0.04309563,-0.22146365
0.0074568493,-0.054328475,-0.050067417,9.807847,-0.046686932,-0.24061728
0.008522114,-0.05326321,-0.050067417,9.830592,-0.044292733,-0.23463176
0.0074568493,-0.05326321,-0.049002152,9.8198185,-0.047884032,-0.22864626
0.008522114,-0.05326321,-0.049002152,9.812635,-0.045489833,-0.24899697
0.008522114,-0.052197944,-0.049002152,9.811439,-0.044292733,-0.23104046
0.009587378,-0.05326321,-0.04793689,9.811439,-0.049081136,-0.23343466
0.008522114,-0.05326321,-0.049002152,9.8042555,-0.050278235,-0.24181437
0.0074568493,-0.054328475,-0.04793689,9.810242,-0.046686932,-0.21547815
0.008522114,-0.055393737,-0.049002152,9.812635,-0.047884032,-0.24420857
0.009587378,-0.054328475,-0.049002152,9.818622,-0.046686932,-0.21068975
0.009587378,-0.054328475,-0.04793689,9.830592,-0.045489833,-0.23104046
0.011717906,-0.054328475,-0.049002152,9.846154,-0.045489833,-0.22146365
0.013848434,-0.054328475,-0.050067417,9.829395,-0.046686932,-0.25498247
0.012783171,-0.05326321,-0.049002152,9.822212,-0.06464344,-0.25378537
0.013848434,-0.05326321,-0.046871625,9.801862,-0.051475335,-0.24779987
0.010652642,-0.052197944,-0.046871625,9.799467,-0.050278235,-0.22625206
0.008522114,-0.051132683,-0.049002152,9.799467,-0.045489833,-0.21308395
0.008522114,-0.052197944,-0.04793689,9.818622,-0.044292733,-0.21068975
0.009587378,-0.05326321,-0.050067417,9.813833,-0.044292733,-0.22864626
0.010652642,-0.05326321,-0.049002152,9.821015,-0.044292733,-0.23343466
0.010652642,-0.054328475,-0.04793689,9.818622,-0.045489833,-0.21308395
0.010652642,-0.05326321,-0.04793689,9.812635,-0.045489833,-0.24660277
0.012783171,-0.052197944,-0.049002152,9.816227,-0.04309563,-0.22744916
0.011717906,-0.05326321,-0.049002152,9.809045,-0.04309563,-0.23223756
0.010652642,-0.05326321,-0.04793689,9.812635,-0.045489833,-0.22385786
0.010652642,-0.052197944,-0.049002152,9.805453,-0.044292733,-0.23463176
0.010652642,-0.05326321,-0.046871625,9.807847,-0.045489833,-0.21906945
0.010652642,-0.05326321,-0.046871625,9.8198185,-0.044292733,-0.22984336
0.009587378,-0.05326321,-0.050067417,9.822212,-0.049081136,-0.22505496
0.009587378,-0.05326321,-0.04793689,9.827001,-0.044292733,-0.24181437
0.009587378,-0.05326321,-0.04793689,9.82341,-0.047884032,-0.23343466
0.008522114,-0.052197944,-0.049002152,9.812635,-0.047884032,-0.25258827
0.0074568493,-0.05326321,-0.049002152,9.818622,-0.05626374,-0.260968
0.008522114,-0.052197944,-0.04793689,9.805453,-0.059855044,-0.23463176
0.009587378,-0.051132683,-0.049002152,9.81503,-0.061052144,-0.24181437
0.008522114,-0.052197944,-0.050067417,9.824607,-0.049081136,-0.23223756
0.008522114,-0.052197944,-0.049002152,9.82341,-0.045489833,-0.23343466
0.008522114,-0.052197944,-0.050067417,9.813833,-0.051475335,-0.24660277
0.009587378,-0.05326321,-0.04793689,9.812635,-0.050278235,-0.23104046
0.008522114,-0.051132683,-0.049002152,9.816227,-0.045489833,-0.22625206
0.0074568493,-0.052197944,-0.049002152,9.811439,-0.053869538,-0.23104046
0.009587378,-0.051132683,-0.04793689,9.817424,-0.046686932,-0.21308395
0.0074568493,-0.052197944,-0.049002152,9.821015,-0.051475335,-0.22984336
0.008522114,-0.052197944,-0.04793689,9.807847,-0.045489833,-0.22026655
0.009587378,-0.052197944,-0.046871625,9.807847,-0.044292733,-0.22505496
0.009587378,-0.052197944,-0.046871625,9.813833,-0.044292733,-0.22146365
0.009587378,-0.050067417,-0.04793689,9.803059,-0.044292733,-0.23104046
0.008522114,-0.051132683,-0.050067417,9.810242,-0.044292733,-0.23463176
0.008522114,-0.052197944,-0.049002152,9.811439,-0.044292733,-0.23223756
0.011717906,-0.052197944,-0.04793689,9.817424,-0.04309563,-0.22625206
0.013848434,-0.050067417,-0.04793689,9.803059,-0.046686932,-0.23223756
0.013848434,-0.050067417,-0.04793689,9.816227,-0.049081136,-0.22385786
0.013848434,-0.050067417,-0.04793689,9.824607,-0.044292733,-0.20470424
0.010652642,-0.051132683,-0.049002152,9.821015,-0.06464344,-0.24061728
0.009587378,-0.050067417,-0.04793689,9.803059,-0.045489833,-0.23343466
0.011717906,-0.051132683,-0.049002152,9.805453,-0.044292733,-0.21906945
0.011717906,-0.050067417,-0.04793689,9.811439,-0.050278235,-0.21667525
0.009587378,-0.051132683,-0.049002152,9.805453,-0.05267244,-0.23702596
0.009587378,-0.050067417,-0.046871625,9.813833,-0.053869538,-0.23463176
0.010652642,-0.052197944,-0.049002152,9.811439,-0.051475335,-0.24540567
0.008522114,-0.051132683,-0.049002152,9.818622,-0.051475335,-0.22146365
0.008522114,-0.052197944,-0.050067417,9.803059,-0.051475335,-0.24660277
0.010652642,-0.05326321,-0.049002152,9.799467,-0.050278235,-0.25019407
0.011717906,-0.052197944,-0.049002152,9.81503,-0.047884032,-0.21787235
0.010652642,-0.052197944,-0.049002152,9.8042555,-0.049081136,-0.23223756
0.010652642,-0.051132683,-0.050067417,9.801862,-0.046686932,-0.23223756
0.008522114,-0.050067417,-0.050067417,9.81503,-0.045489833,-0.23582886
0.008522114,-0.051132683,-0.049002152,9.813833,-0.046686932,-0.23463176
0.009587378,-0.05326321,-0.051132683,9.821015,-0.044292733,-0.22266077
0.009587378,-0.05326321,-0.049002152,9.816227,-0.044292733,-0.23343466
0.010652642,-0.052197944,-0.049002152,9.813833,-0.045489833,-0.23822308
0.009587378,-0.052197944,-0.049002152,9.81503,-0.044292733,-0.24420857
0.009587378,-0.052197944,-0.04793689,9.800665,-0.045489833,-0.21906945
0.010652642,-0.05326321,-0.049002152,9.807847,-0.044292733,-0.22864626
0.009587378,-0.05326321,-0.046871625,9.82341,-0.044292733,-0.22744916
0.008522114,-0.052197944,-0.049002152,9.817424,-0.044292733,-0.24061728
0.010652642,-0.052197944,-0.04793689,9.824607,-0.045489833,-0.22266077
0.008522114,-0.052197944,-0.04793689,9.80665,-0.050278235,-0.22744916
0.0074568493,-0.05326321,-0.049002152,9.807847,-0.046686932,-0.22385786
0.0074568493,-0.054328475,-0.049002152,9.81503,-0.047884032,-0.25019407
0.008522114,-0.05326321,-0.050067417,9.817424,-0.045489833,-0.23942018
0.008522114,-0.054328475,-0.046871625,9.825804,-0.05267244,-0.25737667
0.008522114,-0.052197944,-0.04793689,9.81503,-0.05865794,-0.24061728
0.0063915853,-0.051132683,-0.04793689,9.807847,-0.059855044,-0.25977087
0.0063915853,-0.05326321,-0.049002152,9.799467,-0.05746084,-0.24301147
0.0063915853,-0.05326321,-0.049002152,9.800665,-0.050278235,-0.24181437
0.008522114,-0.054328475,-0.049002152,9.817424,-0.046686932,-0.23343466
0.009587378,-0.052197944,-0.051132683,9.800665,-0.047884032,-0.24899697
0.008522114,-0.052197944,-0.050067417,9.821015,-0.045489833,-0.23223756
0.010652642,-0.05326321,-0.050067417,9.811439,-0.049081136,-0.23942018
0.010652642,-0.05326321,-0.050067417,9.811439,-0.047884032,-0.23582886
0.008522114,-0.05326321,-0.050067417,9.811439,-0.047884032,-0.23582886
0.009587378,-0.052197944,-0.051132683,9.811439,-0.046686932,-0.22744916
0.008522114,-0.051132683,-0.049002152,9.80665,-0.046686932,-0.22744916
0.009587378,-0.052197944,-0.049002152,9.810242,-0.045489833,-0.20590134
0.010652642,-0.05326321,-0.049002152,9.822212,-0.045489833,-0.22266077
0.008522114,-0.054328475,-0.049002152,9.81503,-0.044292733,-0.22385786
0.008522114,-0.052197944,-0.049002152,9.821015,-0.044292733,-0.21667525
0.009587378,-0.052197944,-0.04793689,9.805453,-0.045489833,-0.23582886
0.010652642,-0.052197944,-0.046871625,9.8042555,-0.044292733,-0.22146365
0.011717906,-0.05326321,-0.049002152,9.817424,-0.046686932,-0.23582886
0.011717906,-0.05326321,-0.04793689,9.80665,-0.044292733,-0.22266077
0.010652642,-0.055393737,-0.049002152,9.810242,-0.046686932,-0.22984336
0.009587378,-0.054328475,-0.049002152,9.811439,-0.049081136,-0.23463176
0.010652642,-0.052197944,-0.04793689,9.821015,-0.053869538,-0.25258827
0.008522114,-0.052197944,-0.04793689,9.809045,-0.050278235,-0.23702596
0.008522114,-0.05326321,-0.04793689,9.812635,-0.050278235,-0.24181437
0.008522114,-0.052197944,-0.049002152,9.818622,-0.05267244,-0.25498247
0.0074568493,-0.051132683,-0.050067417,9.822212,-0.044292733,-0.22026655
0.008522114,-0.052197944,-0.051132683,9.811439,-0.046686932,-0.24899697
0.008522114,-0.052197944,-0.051132683,9.811439,-0.046686932,-0.24899697
0.012783171,-0.054328475,-0.049002152,9.810242,-0.049081136,-0.23702596
0.011717906,-0.05326321,-0.050067417,9.824607,-0.049081136,-0.23463176
0.010652642,-0.052197944,-0.050067417,9.807847,-0.044292733,-0.22744916
0.009587378,-0.052197944,-0.049002152,9.817424,-0.050278235,-0.22266077
0.008522114,-0.051132683,-0.04793689,9.801862,-0.05626374,-0.22505496
0.008522114,-0.052197944,-0.049002152,9.810242,-0.044292733,-0.22744916
0.008522114,-0.05326321,-0.049002152,9.8198185,-0.04309563,-0.22026655
0.009587378,-0.051132683,-0.049002152,9.825804,-0.044292733,-0.22864626
0.010652642,-0.05326321,-0.050067417,9.835381,-0.047884032,-0.21428105
0.010652642,-0.05326321,-0.050067417,9.835381,-0.047884032,-0.21428105
0.009587378,-0.051132683,-0.04793689,9.821015,-0.046686932,-0.22864626
0.009587378,-0.052197944,-0.04793689,9.813833,-0.046686932,-0.21428105
0.009587378,-0.052197944,-0.04793689,9.813833,-0.046686932,-0.21428105
0.010652642,-0.052197944,-0.046871625,9.805453,-0.044292733,-0.21906945
0.010652642,-0.052197944,-0.046871625,9.805453,-0.044292733,-0.21906945
0.009587378,-0.055393737,-0.04793689,9.816227,-0.05865794,-0.22984336
0.010652642,-0.054328475,-0.049002152,9.805453,-0.051475335,-0.24181437
0.009587378,-0.050067417,-0.049002152,9.825804,-0.046686932,-0.22984336
0.008522114,-0.05326321,-0.04793689,9.816227,-0.045489833,-0.21068975
0.009587378,-0.05326321,-0.04793689,9.813833,-0.062249243,-0.25617957
0.012783171,-0.052197944,-0.049002152,9.813833,-0.045489833,-0.18794483
0.010652642,-0.052197944,-0.049002152,9.807847,-0.05746084,-0.24899697
0.009587378,-0.052197944,-0.04793689,9.827001,-0.044292733,-0.21787235
0.008522114,-0.052197944,-0.049002152,9.821015,-0.050278235,-0.22385786
0.009587378,-0.052197944,-0.049002152,9.811439,-0.046686932,-0.21428105
0.009587378,-0.052197944,-0.049002152,9.811439,-0.046686932,-0.21428105
0.008522114,-0.05326321,-0.049002152,9.809045,-0.046686932,-0.22984336
0.008522114,-0.05326321,-0.049002152,9.809045,-0.046686932,-0.22984336
0.010652642,-0.052197944,-0.049002152,9.807847,-0.051475335,-0.22385786
0.009587378,-0.054328475,-0.04793689,9.7958765,-0.047884032,-0.22625206
0.011717906,-0.05326321,-0.04793689,9.809045,-0.047884032,-0.24301147
0.012783171,-0.05326321,-0.046871625,9.810242,-0.04309563,-0.19752164
0.009587378,-0.05326321,-0.04793689,9.812635,-0.045489833,-0.22744916
0.010652642,-0.051132683,-0.049002152,9.821015,-0.045489833,-0.20829555
0.010652642,-0.05326321,-0.049002152,9.8198185,-0.045489833,-0.20350714
0.010652642,-0.052197944,-0.049002152,9.809045,-0.045489833,-0.23104046
0.010652642,-0.05326321,-0.049002152,9.80665,-0.044292733,-0.21547815
0.009587378,-0.054328475,-0.04793689,9.7958765,-0.045489833,-0.22744916
0.0074568493,-0.05326321,-0.049002152,9.797073,-0.047884032,-0.23702596
0.008522114,-0.052197944,-0.04793689,9.816227,-0.044292733,-0.22146365
0.008522114,-0.052197944,-0.04793689,9.8198185,-0.049081136,-0.23104046
0.008522114,-0.052197944,-0.049002152,9.816227,-0.044292733,-0.21068975
0.009587378,-0.052197944,-0.04793689,9.834184,-0.047884032,-0.22984336
0.009587378,-0.052197944,-0.050067417,9.80665,-0.045489833,-0.22744916
0.009587378,-0.05326321,-0.049002152,9.811439,-0.047884032,-0.22505496
0.0063915853,-0.052197944,-0.046871625,9.797073,-0.053869538,-0.23582886
0.0074568493,-0.051132683,-0.04793689,9.810242,-0.05267244,-0.22385786
0.0063915853,-0.052197944,-0.049002152,9.817424,-0.05267244,-0.21667525
0.0063915853,-0.05326321,-0.050067417,9.828198,-0.055066638,-0.24540567
0.005326321,-0.052197944,-0.050067417,9.811439,-0.049081136,-0.23104046
0.005326321,-0.051132683,-0.050067417,9.81503,-0.05626374,-0.23223756
0.0031957927,-0.051132683,-0.050067417,9.821015,-0.049081136,-0.22266077
0.0074568493,-0.05326321,-0.049002152,9.799467,-0.050278235,-0.22385786
0.009587378,-0.054328475,-0.049002152,9.792285,-0.053869538,-0.24061728
0.011717906,-0.05326321,-0.049002152,9.810242,-0.047884032,-0.22505496
0.011717906,-0.054328475,-0.049002152,9.799467,-0.047884032,-0.22266077
0.010652642,-0.055393737,-0.049002152,9.831789,-0.04309563,-0.20231004
0.008522114,-0.057524268,-0.04793689,9.810242,-0.051475335,-0.30166942
0.011717906,-0.054328475,-0.04793689,9.817424,-0.04309563,-0.19273324
0.014913699,-0.052197944,-0.04580636,9.8198185,-0.04309563,-0.21667525
0.02024002,-0.056459002,-0.04793689,9.811439,-0.049081136,-0.29568392
0.023435812,-0.050067417,-0.04580636,9.80665,-0.044292733,-0.15322891
0.015978962,-0.05326321,-0.04793689,9.805453,-0.059855044,-0.24181437
0.011717906,-0.052197944,-0.049002152,9.799467,-0.05267244,-0.22505496
0.011717906,-0.05326321,-0.04793689,9.801862,-0.045489833,-0.21787235
0.010652642,-0.05326321,-0.050067417,9.8198185,-0.045489833,-0.23582886
0.011717906,-0.052197944,-0.049002152,9.809045,-0.044292733,-0.19273324
0.009587378,-0.052197944,-0.050067417,9.812635,-0.049081136,-0.23463176
0.010652642,-0.05326321,-0.050067417,9.811439,-0.044292733,-0.21428105
0.008522114,-0.05326321,-0.049002152,9.812635,-0.046686932,-0.21667525
0.0074568493,-0.05326321,-0.050067417,9.812635,-0.051475335,-0.22864626
0.0074568493,-0.05326321,-0.050067417,9.817424,-0.049081136,-0.22744916
0.009587378,-0.051132683,-0.049002152,9.810242,-0.051475335,-0.20829555
0.009587378,-0.052197944,-0.049002152,9.812635,-0.047884032,-0.22625206
0.009587378,-0.052197944,-0.046871625,9.8042555,-0.046686932,-0.20470424
0.008522114,-0.052197944,-0.04793689,9.801862,-0.046686932,-0.21188685
0.008522114,-0.05326321,-0.04793689,9.805453,-0.044292733,-0.22266077
0.008522114,-0.051132683,-0.04793689,9.803059,-0.047884032,-0.22505496
0.008522114,-0.052197944,-0.049002152,9.79827,-0.044292733,-0.20709845
0.010652642,-0.054328475,-0.050067417,9.82341,-0.047884032,-0.22266077
0.011717906,-0.054328475,-0.050067417,9.821015,-0.044292733,-0.22146365
0.009587378,-0.05326321,-0.04793689,9.80665,-0.046686932,-0.22385786
0.009587378,-0.054328475,-0.04793689,9.803059,-0.045489833,-0.20709845
0.009587378,-0.05326321,-0.049002152,9.817424,-0.045489833,-0.22505496
0.0074568493,-0.054328475,-0.050067417,9.801862,-0.045489833,-0.22146365
0.0074568493,-0.052197944,-0.049002152,9.811439,-0.046686932,-0.22026655
0.0074568493,-0.054328475,-0.046871625,9.818622,-0.047884032,-0.22864626
0.0074568493,-0.052197944,-0.049002152,9.810242,-0.045489833,-0.20350714
0.008522114,-0.054328475,-0.050067417,9.816227,-0.046686932,-0.21787235
0.009587378,-0.054328475,-0.049002152,9.811439,-0.049081136,-0.21787235
0.008522114,-0.055393737,-0.04793689,9.818622,-0.044292733,-0.20829555
0.008522114,-0.05326321,-0.04793689,9.810242,-0.051475335,-0.22864626
0.008522114,-0.052197944,-0.04793689,9.807847,-0.046686932,-0.20470424
0.008522114,-0.05326321,-0.04793689,9.811439,-0.047884032,-0.23942018
0.010652642,-0.05326321,-0.049002152,9.8198185,-0.045489833,-0.22026655
0.008522114,-0.054328475,-0.049002152,9.811439,-0.05626374,-0.23942018
0.008522114,-0.054328475,-0.050067417,9.812635,-0.047884032,-0.22385786
0.0074568493,-0.052197944,-0.049002152,9.80665,-0.050278235,-0.22625206
0.0074568493,-0.052197944,-0.049002152,9.811439,-0.049081136,-0.23582886
0.0074568493,-0.054328475,-0.049002152,9.8042555,-0.051475335,-0.24061728
0.008522114,-0.05326321,-0.049002152,9.813833,-0.050278235,-0.22744916
0.008522114,-0.05326321,-0.049002152,9.816227,-0.046686932,-0.22026655
0.0074568493,-0.05326321,-0.049002152,9.82341,-0.049081136,-0.23582886
0.0063915853,-0.05326321,-0.04793689,9.803059,-0.045489833,-0.23223756
0.0074568493,-0.05326321,-0.049002152,9.809045,-0.044292733,-0.22984336
0.008522114,-0.051132683,-0.04793689,9.812635,-0.044292733,-0.22505496
0.0074568493,-0.052197944,-0.049002152,9.811439,-0.044292733,-0.22744916
0.008522114,-0.052197944,-0.049002152,9.811439,-0.046686932,-0.22864626
0.008522114,-0.052197944,-0.049002152,9.813833,-0.047884032,-0.21906945
0.009587378,-0.052197944,-0.04793689,9.81503,-0.045489833,-0.23463176
0.008522114,-0.05326321,-0.04793689,9.811439,-0.046686932,-0.23582886
0.008522114,-0.05326321,-0.049002152,9.807847,-0.044292733,-0.22625206
0.008522114,-0.052197944,-0.050067417,9.8042555,-0.047884032,-0.23822308
0.009587378,-0.052197944,-0.050067417,9.817424,-0.044292733,-0.21787235
0.0074568493,-0.054328475,-0.04793689,9.811439,-0.046686932,-0.23223756
0.010652642,-0.052197944,-0.04793689,9.816227,-0.044292733,-0.21308395
0.008522114,-0.05326321,-0.04793689,9.813833,-0.049081136,-0.22625206
0.009587378,-0.055393737,-0.050067417,9.817424,-0.044292733,-0.22385786
0.010652642,-0.055393737,-0.046871625,9.821015,-0.05626374,-0.2633622
0.009587378,-0.054328475,-0.050067417,9.822212,-0.05267244,-0.23702596
0.009587378,-0.055393737,-0.049002152,9.81503,-0.047884032,-0.22744916
0.008522114,-0.054328475,-0.049002152,9.821015,-0.044292733,-0.23582886
0.0074568493,-0.05326321,-0.049002152,9.799467,-0.044292733,-0.22266077
0.004261057,-0.054328475,-0.04793689,9.8042555,-0.046686932,-0.22984336
0.005326321,-0.054328475,-0.049002152,9.797073,-0.050278235,-0.24061728
0.0074568493,-0.05326321,-0.050067417,9.801862,-0.049081136,-0.23223756
0.0074568493,-0.05326321,-0.050067417,9.80665,-0.047884032,-0.22984336
0.009587378,-0.05326321,-0.049002152,9.832987,-0.046686932,-0.21428105
0.008522114,-0.05326321,-0.049002152,9.809045,-0.05267244,-0.23702596
0.009587378,-0.05326321,-0.04793689,9.8042555,-0.050278235,-0.22984336
0.009587378,-0.052197944,-0.049002152,9.828198,-0.044292733,-0.20949265
0.008522114,-0.052197944,-0.050067417,9.822212,-0.044292733,-0.22266077
0.0074568493,-0.052197944,-0.050067417,9.8198185,-0.045489833,-0.22266077
0.008522114,-0.054328475,-0.049002152,9.835381,-0.044292733,-0.21547815
0.008522114,-0.054328475,-0.049002152,9.811439,-0.046686932,-0.23343466
0.008522114,-0.054328475,-0.049002152,9.800665,-0.049081136,-0.23343466
0.008522114,-0.05326321,-0.049002152,9.811439,-0.047884032,-0.23104046
0.0074568493,-0.05326321,-0.049002152,9.800665,-0.047884032,-0.22625206
0.009587378,-0.054328475,-0.049002152,9.816227,-0.044292733,-0.20949265
0.009587378,-0.055393737,-0.049002152,9.821015,-0.044292733,-0.22984336
0.010652642,-0.055393737,-0.049002152,9.828198,-0.045489833,-0.21188685
0.009587378,-0.05326321,-0.049002152,9.821015,-0.045489833,-0.21547815
0.0074568493,-0.05326321,-0.04793689,9.80665,-0.045489833,-0.20709845
0.0063915853,-0.052197944,-0.050067417,9.81503,-0.045489833,-0.22026655
0.0063915853,-0.052197944,-0.050067417,9.812635,-0.046686932,-0.20949265
0.0063915853,-0.052197944,-0.049002152,9.810242,-0.046686932,-0.22385786
0.0074568493,-0.05326321,-0.04793689,9.816227,-0.045489833,-0.22625206
0.005326321,-0.05326321,-0.050067417,9.82341,-0.046686932,-0.22385786
0.005326321,-0.052197944,-0.049002152,9.822212,-0.050278235,-0.21906945
0.0063915853,-0.054328475,-0.04793689,9.816227,-0.047884032,-0.23223756
0.0074568493,-0.05326321,-0.04793689,9.809045,-0.049081136,-0.22625206
0.0074568493,-0.055393737,-0.049002152,9.81503,-0.046686932,-0.23223756
0.008522114,-0.055393737,-0.04793689,9.799467,-0.05267244,-0.24540567
0.0074568493,-0.05326321,-0.04793689,9.812635,-0.045489833,-0.21068975
0.0074568493,-0.052197944,-0.050067417,9.811439,-0.047884032,-0.23343466
0.0074568493,-0.05326321,-0.049002152,9.811439,-0.044292733,-0.22625206
0.0074568493,-0.054328475,-0.04793689,9.821015,-0.046686932,-0.24301147
0.0074568493,-0.054328475,-0.049002152,9.8198185,-0.044292733,-0.21667525
0.0063915853,-0.052197944,-0.049002152,9.810242,-0.045489833,-0.21787235
0.0063915853,-0.052197944,-0.051132683,9.810242,-0.04309563,-0.21547815
0.008522114,-0.05326321,-0.050067417,9.811439,-0.044292733,-0.23822308
0.009587378,-0.052197944,-0.049002152,9.810242,-0.045489833,-0.22625206
0.010652642,-0.054328475,-0.049002152,9.827001,-0.051475335,-0.2717419
0.013848434,-0.051132683,-0.046871625,9.818622,-0.044292733,-0.16998832
0.010652642,-0.051132683,-0.04793689,9.810242,-0.047884032,-0.2873042
0.010652642,-0.051132683,-0.049002152,9.818622,-0.044292733,-0.20111294
0.009587378,-0.052197944,-0.049002152,9.800665,-0.045489833,-0.21906945
0.009587378,-0.05326321,-0.049002152,9.810242,-0.051475335,-0.24301147
0.010652642,-0.052197944,-0.049002152,9.811439,-0.049081136,-0.22744916
0.010652642,-0.051132683,-0.04793689,9.817424,-0.046686932,-0.23702596
0.009587378,-0.054328475,-0.04793689,9.816227,-0.044292733,-0.22146365
0.009587378,-0.05326321,-0.04793689,9.812635,-0.044292733,-0.24540567
0.009587378,-0.054328475,-0.04793689,9.8042555,-0.051475335,-0.22984336
0.008522114,-0.05326321,-0.04793689,9.818622,-0.045489833,-0.23582886
0.009587378,-0.05326321,-0.04793689,9.821015,-0.044292733,-0.22505496
0.009587378,-0.05326321,-0.049002152,9.81503,-0.045489833,-0.23463176
0.009587378,-0.054328475,-0.04793689,9.809045,-0.049081136,-0.24420857
0.009587378,-0.05326321,-0.050067417,9.81503,-0.055066638,-0.24181437
0.008522114,-0.052197944,-0.049002152,9.7958765,-0.050278235,-0.24660277
0.009587378,-0.051132683,-0.04793689,9.811439,-0.045489833,-0.22146365
0.009587378,-0.050067417,-0.04793689,9.800665,-0.046686932,-0.23223756
0.009587378,-0.054328475,-0.049002152,9.805453,-0.049081136,-0.24420857
0.008522114,-0.052197944,-0.04793689,9.7958765,-0.051475335,-0.24540567
0.0074568493,-0.052197944,-0.049002152,9.8198185,-0.050278235,-0.24061728
0.009587378,-0.054328475,-0.050067417,9.807847,-0.047884032,-0.24061728
0.008522114,-0.054328475,-0.049002152,9.816227,-0.047884032,-0.24420857
0.0074568493,-0.05326321,-0.050067417,9.8198185,-0.044292733,-0.23463176
0.009587378,-0.052197944,-0.049002152,9.810242,-0.045489833,-0.24181437
0.008522114,-0.051132683,-0.049002152,9.800665,-0.047884032,-0.22864626
0.008522114,-0.052197944,-0.050067417,9.812635,-0.044292733,-0.22744916
0.008522114,-0.05326321,-0.050067417,9.813833,-0.044292733,-0.22744916
0.008522114,-0.052197944,-0.049002152,9.82341,-0.045489833,-0.23223756
0.008522114,-0.055393737,-0.049002152,9.816227,-0.045489833,-0.23343466
0.008522114,-0.054328475,-0.049002152,9.80665,-0.050278235,-0.25498247
0.008522114,-0.054328475,-0.049002152,9.80665,-0.050278235,-0.25498247
0.008522114,-0.05326321,-0.04793689,9.80665,-0.044292733,-0.22744916
0.008522114,-0.05326321,-0.049002152,9.800665,-0.045489833,-0.24181437
0.0063915853,-0.052197944,-0.049002152,9.817424,-0.044292733,-0.23463176
0.008522114,-0.05326321,-0.04793689,9.821015,-0.044292733,-0.22984336
0.008522114,-0.054328475,-0.049002152,9.80665,-0.044292733,-0.22026655
0.009587378,-0.05326321,-0.049002152,9.8042555,-0.046686932,-0.22146365
0.011717906,-0.052197944,-0.049002152,9.809045,-0.046686932,-0.23343466
0.009587378,-0.051132683,-0.04793689,9.807847,-0.045489833,-0.23582886
0.009587378,-0.05326321,-0.049002152,9.825804,-0.049081136,-0.23343466
0.009587378,-0.052197944,-0.049002152,9.817424,-0.046686932,-0.22385786
0.009587378,-0.054328475,-0.049002152,9.807847,-0.050278235,-0.22505496
0.011717906,-0.052197944,-0.049002152,9.82341,-0.049081136,-0.22625206
0.013848434,-0.052197944,-0.049002152,9.810242,-0.049081136,-0.21547815
0.014913699,-0.054328475,-0.050067417,9.824607,-0.044292733,-0.22266077
0.012783171,-0.05326321,-0.049002152,9.822212,-0.046686932,-0.23582886
0.011717906,-0.05326321,-0.050067417,9.811439,-0.044292733,-0.22385786
0.009587378,-0.05326321,-0.049002152,9.825804,-0.051475335,-0.23104046
0.010652642,-0.05326321,-0.049002152,9.812635,-0.04309563,-0.22146365
0.008522114,-0.054328475,-0.049002152,9.811439,-0.046686932,-0.22266077
0.009587378,-0.05326321,-0.049002152,9.813833,-0.045489833,-0.23343466
0.010652642,-0.054328475,-0.050067417,9.803059,-0.044292733,-0.22864626
0.009587378,-0.052197944,-0.049002152,9.8042555,-0.045489833,-0.22864626
0.009587378,-0.051132683,-0.049002152,9.801862,-0.045489833,-0.21068975
0.011717906,-0.052197944,-0.049002152,9.812635,-0.047884032,-0.21667525
0.010652642,-0.052197944,-0.04793689,9.805453,-0.044292733,-0.22505496
0.011717906,-0.05326321,-0.04793689,9.825804,-0.044292733,-0.22266077
0.008522114,-0.054328475,-0.049002152,9.81503,-0.046686932,-0.22625206
0.009587378,-0.054328475,-0.04793689,9.824607,-0.045489833,-0.22146365
0.009587378,-0.052197944,-0.050067417,9.810242,-0.046686932,-0.23702596
0.010652642,-0.05326321,-0.049002152,9.799467,-0.050278235,-0.23942018
0.008522114,-0.052197944,-0.04793689,9.805453,-0.049081136,-0.24061728
0.008522114,-0.052197944,-0.04793689,9.816227,-0.047884032,-0.22625206
0.009587378,-0.052197944,-0.049002152,9.813833,-0.050278235,-0.22625206
0.009587378,-0.05326321,-0.050067417,9.810242,-0.05267244,-0.23702596
0.010652642,-0.05326321,-0.049002152,9.803059,-0.055066638,-0.22625206
0.010652642,-0.05326321,-0.049002152,9.817424,-0.047884032,-0.22026655
0.010652642,-0.05326321,-0.049002152,9.817424,-0.047884032,-0.22026655
0.011717906,-0.05326321,-0.046871625,9.817424,-0.049081136,-0.22625206
0.009587378,-0.052197944,-0.049002152,9.82341,-0.047884032,-0.21906945
0.008522114,-0.05326321,-0.049002152,9.81503,-0.045489833,-0.23223756
0.009587378,-0.054328475,-0.04793689,9.810242,-0.049081136,-0.22864626
0.011717906,-0.05326321,-0.04793689,9.825804,-0.05267244,-0.24779987
0.009587378,-0.05326321,-0.04793689,9.82341,-0.044292733,-0.23223756
0.011717906,-0.052197944,-0.049002152,9.79827,-0.045489833,-0.22744916
0.008522114,-0.054328475,-0.049002152,9.812635,-0.044292733,-0.22026655
0.009587378,-0.051132683,-0.049002152,9.816227,-0.044292733,-0.22146365
0.009587378,-0.05326321,-0.049002152,9.818622,-0.044292733,-0.23822308
0.010652642,-0.05326321,-0.049002152,9.812635,-0.046686932,-0.21787235
0.009587378,-0.052197944,-0.049002152,9.80665,-0.045489833,-0.22625206
0.010652642,-0.052197944,-0.050067417,9.800665,-0.049081136,-0.22385786
0.009587378,-0.054328475,-0.049002152,9.803059,-0.045489833,-0.22266077
0.009587378,-0.054328475,-0.049002152,9.803059,-0.045489833,-0.22266077
0.009587378,-0.052197944,-0.050067417,9.816227,-0.047884032,-0.21906945
0.010652642,-0.052197944,-0.050067417,9.818622,-0.044292733,-0.23582886
0.010652642,-0.05326321,-0.049002152,9.821015,-0.049081136,-0.25019407
0.010652642,-0.051132683,-0.049002152,9.805453,-0.046686932,-0.22744916
0.009587378,-0.05326321,-0.050067417,9.816227,-0.046686932,-0.22505496
0.0074568493,-0.052197944,-0.050067417,9.7958765,-0.046686932,-0.22625206
0.0074568493,-0.052197944,-0.050067417,9.7958765,-0.046686932,-0.22625206
0.0074568493,-0.05326321,-0.050067417,9.811439,-0.051475335,-0.24899697
0.008522114,-0.054328475,-0.050067417,9.810242,-0.047884032,-0.22026655
0.010652642,-0.054328475,-0.049002152,9.81503,-0.046686932,-0.22864626
0.009587378,-0.054328475,-0.04793689,9.805453,-0.053869538,-0.24420857
0.011717906,-0.05326321,-0.04793689,9.818622,-0.044292733,-0.22026655
0.010652642,-0.05326321,-0.04793689,9.805453,-0.045489833,-0.22864626
0.009587378,-0.05326321,-0.046871625,9.8042555,-0.045489833,-0.21787235
0.008522114,-0.056459002,-0.049002152,9.813833,-0.047884032,-0.23702596
0.009587378,-0.052197944,-0.04793689,9.807847,-0.044292733,-0.22505496
0.009587378,-0.05326321,-0.04793689,9.822212,-0.044292733,-0.23104046
0.008522114,-0.052197944,-0.04793689,9.8198185,-0.044292733,-0.22864626
0.009587378,-0.052197944,-0.04793689,9.821015,-0.044292733,-0.22385786
0.009587378,-0.05326321,-0.049002152,9.810242,-0.046686932,-0.23942018
0.009587378,-0.05326321,-0.049002152,9.811439,-0.046686932,-0.24061728
0.009587378,-0.052197944,-0.050067417,9.807847,-0.045489833,-0.24540567
0.010652642,-0.052197944,-0.049002152,9.807847,-0.044292733,-0.22625206
0.010652642,-0.052197944,-0.04793689,9.81503,-0.046686932,-0.23582886
0.009587378,-0.05326321,-0.049002152,9.818622,-0.044292733,-0.22146365
0.011717906,-0.052197944,-0.050067417,9.816227,-0.046686932,-0.22026655
0.008522114,-0.05326321,-0.050067417,9.81503,-0.047884032,-0.23104046
0.008522114,-0.05326321,-0.049002152,9.811439,-0.046686932,-0.24301147
0.009587378,-0.052197944,-0.049002152,9.801862,-0.044292733,-0.22505496
0.010652642,-0.052197944,-0.04793689,9.809045,-0.046686932,-0.24301147
0.011717906,-0.051132683,-0.049002152,9.817424,-0.049081136,-0.23463176
0.009587378,-0.051132683,-0.04793689,9.80665,-0.047884032,-0.23104046
0.008522114,-0.05326321,-0.049002152,9.816227,-0.044292733,-0.24301147
0.010652642,-0.055393737,-0.04793689,9.811439,-0.049081136,-0.25019407
0.011717906,-0.051132683,-0.049002152,9.812635,-0.045489833,-0.23942018
0.013848434,-0.054328475,-0.049002152,9.80665,-0.046686932,-0.23104046
0.013848434,-0.05326321,-0.049002152,9.81503,-0.044292733,-0.22385786
0.012783171,-0.05326321,-0.049002152,9.813833,-0.04309563,-0.17836803
0.008522114,-0.056459002,-0.050067417,9.803059,-0.092176765,-0.40581718
0.011717906,-0.051132683,-0.046871625,9.831789,-0.0023942017,-0.1400608
0.009587378,-0.052197944,-0.049002152,9.842564,-0.050278235,-0.3184288
0.0074568493,-0.050067417,-0.050067417,9.812635,-0.021547815,-0.20350714
0.0074568493,-0.051132683,-0.049002152,9.81503,-0.05267244,-0.2681506
0.008522114,-0.052197944,-0.050067417,9.80665,-0.046686932,-0.24660277
0.0074568493,-0.052197944,-0.049002152,9.811439,-0.047884032,-0.22744916
0.008522114,-0.05326321,-0.04793689,9.811439,-0.045489833,-0.24061728
0.010652642,-0.052197944,-0.04793689,9.816227,-0.049081136,-0.23223756
0.010652642,-0.05326321,-0.049002152,9.822212,-0.051475335,-0.23582886
0.008522114,-0.054328475,-0.049002152,9.816227,-0.046686932,-0.23223756
0.009587378,-0.052197944,-0.049002152,9.824607,-0.049081136,-0.22625206
0.009587378,-0.052197944,-0.049002152,9.812635,-0.046686932,-0.23702596
0.009587378,-0.052197944,-0.050067417,9.809045,-0.050278235,-0.23463176
0.010652642,-0.05326321,-0.049002152,9.809045,-0.046686932,-0.23463176
0.0074568493,-0.05326321,-0.050067417,9.812635,-0.045489833,-0.23582886
0.008522114,-0.054328475,-0.049002152,9.816227,-0.045489833,-0.23343466
0.009587378,-0.054328475,-0.049002152,9.810242,-0.046686932,-0.23582886
0.008522114,-0.054328475,-0.050067417,9.818622,-0.047884032,-0.23582886
0.0074568493,-0.054328475,-0.049002152,9.827001,-0.045489833,-0.24061728
0.009587378,-0.054328475,-0.049002152,9.818622,-0.047884032,-0.23463176
0.009587378,-0.05326321,-0.050067417,9.80665,-0.044292733,-0.24061728
0.010652642,-0.054328475,-0.049002152,9.81503,-0.044292733,-0.23582886
0.010652642,-0.05326321,-0.049002152,9.8042555,-0.050278235,-0.24181437
0.009587378,-0.05326321,-0.049002152,9.822212,-0.045489833,-0.25378537
0.009587378,-0.052197944,-0.049002152,9.817424,-0.045489833,-0.23582886
0.009587378,-0.052197944,-0.049002152,9.807847,-0.044292733,-0.25139117
0.011717906,-0.050067417,-0.049002152,9.813833,-0.046686932,-0.23463176
0.009587378,-0.050067417,-0.049002152,9.799467,-0.046686932,-0.23343466
0.008522114,-0.050067417,-0.050067417,9.807847,-0.046686932,-0.23942018
0.008522114,-0.052197944,-0.049002152,9.821015,-0.055066638,-0.25737667
0.009587378,-0.051132683,-0.04793689,9.80665,-0.046686932,-0.23223756
0.010652642,-0.051132683,-0.04793689,9.818622,-0.047884032,-0.23822308
0.008522114,-0.052197944,-0.049002152,9.830592,-0.053869538,-0.23942018
0.008522114,-0.052197944,-0.051132683,9.817424,-0.049081136,-0.24660277
0.008522114,-0.05326321,-0.050067417,9.812635,-0.045489833,-0.22744916
0.008522114,-0.054328475,-0.04793689,9.818622,-0.050278235,-0.25498247
0.009587378,-0.05326321,-0.050067417,9.80665,-0.045489833,-0.21906945
0.009587378,-0.052197944,-0.049002152,9.82341,-0.045489833,-0.24779987
0.009587378,-0.05326321,-0.04793689,9.825804,-0.044292733,-0.22864626
0.009587378,-0.052197944,-0.049002152,9.813833,-0.046686932,-0.24779987
0.010652642,-0.05326321,-0.049002152,9.813833,-0.045489833,-0.22625206
0.009587378,-0.054328475,-0.049002152,9.82341,-0.04309563,-0.22625206
0.008522114,-0.055393737,-0.04793689,9.8198185,-0.047884032,-0.25737667
0.009587378,-0.054328475,-0.04793689,9.82341,-0.045489833,-0.23582886
0.010652642,-0.054328475,-0.04793689,9.827001,-0.045489833,-0.2621651
0.011717906,-0.05326321,-0.049002152,9.800665,-0.046686932,-0.25019407
0.011717906,-0.051132683,-0.04793689,9.812635,-0.044292733,-0.23223756
0.011717906,-0.052197944,-0.04793689,9.822212,-0.049081136,-0.25019407
0.009587378,-0.051132683,-0.049002152,9.810242,-0.044292733,-0.22864626
0.008522114,-0.05326321,-0.050067417,9.799467,-0.051475335,-0.2801216
0.010652642,-0.052197944,-0.050067417,9.812635,-0.044292733,-0.20350714
0.009587378,-0.052197944,-0.049002152,9.812635,-0.06584055,-0.30047232
0.008522114,-0.052197944,-0.049002152,9.816227,-0.044292733,-0.22625206
0.008522114,-0.055393737,-0.050067417,9.80665,-0.047884032,-0.2621651
0.0074568493,-0.05326321,-0.049002152,9.801862,-0.050278235,-0.23343466
0.008522114,-0.052197944,-0.049002152,9.818622,-0.045489833,-0.23582886
0.009587378,-0.052197944,-0.050067417,9.8042555,-0.046686932,-0.24540567
0.009587378,-0.052197944,-0.050067417,9.82341,-0.050278235,-0.23942018
0.009587378,-0.05326321,-0.049002152,9.817424,-0.046686932,-0.24420857
0.008522114,-0.054328475,-0.04793689,9.801862,-0.05267244,-0.24899697
0.009587378,-0.05326321,-0.049002152,9.821015,-0.045489833,-0.24660277
0.008522114,-0.05326321,-0.049002152,9.8198185,-0.046686932,-0.24660277
0.0074568493,-0.052197944,-0.050067417,9.800665,-0.047884032,-0.24899697
0.009587378,-0.054328475,-0.050067417,9.80665,-0.047884032,-0.25378537
0.010652642,-0.051132683,-0.049002152,9.80665,-0.055066638,-0.2705448
0.010652642,-0.051132683,-0.050067417,9.797073,-0.045489833,-0.25258827
0.011717906,-0.051132683,-0.050067417,9.805453,-0.049081136,-0.24301147
0.009587378,-0.052197944,-0.049002152,9.818622,-0.044292733,-0.23104046
0.008522114,-0.052197944,-0.049002152,9.811439,-0.04309563,-0.24420857
0.008522114,-0.05326321,-0.050067417,9.825804,-0.045489833,-0.24779987
0.009587378,-0.05326321,-0.050067417,9.812635,-0.044292733,-0.25498247
0.010652642,-0.05326321,-0.049002152,9.810242,-0.04189853,-0.24660277
0.010652642,-0.05326321,-0.049002152,9.818622,-0.045489833,-0.25378537
0.009587378,-0.05326321,-0.050067417,9.8042555,-0.045489833,-0.23582886
0.009587378,-0.05326321,-0.049002152,9.8042555,-0.046686932,-0.24420857
0.008522114,-0.054328475,-0.050067417,9.805453,-0.045489833,-0.23463176
0.009587378,-0.05326321,-0.04793689,9.807847,-0.044292733,-0.24420857
0.009587378,-0.05326321,-0.049002152,9.811439,-0.044292733,-0.22505496
0.0074568493,-0.054328475,-0.049002152,9.816227,-0.044292733,-0.24181437
0.008522114,-0.05326321,-0.049002152,9.816227,-0.045489833,-0.24061728
0.009587378,-0.051132683,-0.049002152,9.818622,-0.044292733,-0.22026655
0.0074568493,-0.05326321,-0.049002152,9.825804,-0.047884032,-0.24899697
0.0063915853,-0.052197944,-0.049002152,9.811439,-0.045489833,-0.23582886
0.0074568493,-0.051132683,-0.049002152,9.803059,-0.051475335,-0.24660277
0.0074568493,-0.051132683,-0.049002152,9.803059,-0.051475335,-0.24660277
0.009587378,-0.052197944,-0.049002152,9.809045,-0.049081136,-0.22864626
0.008522114,-0.052197944,-0.049002152,9.8198185,-0.05626374,-0.2681506
0.008522114,-0.05326321,-0.04793689,9.81503,-0.046686932,-0.23104046
0.008522114,-0.05326321,-0.04793689,9.824607,-0.05865794,-0.2657564
0.0074568493,-0.052197944,-0.046871625,9.811439,-0.053869538,-0.2645593
0.009587378,-0.05326321,-0.04793689,9.812635,-0.046686932,-0.23582886
0.009587378,-0.05326321,-0.04793689,9.80665,-0.050278235,-0.23822308
0.0074568493,-0.05326321,-0.046871625,9.8198185,-0.049081136,-0.23822308
0.008522114,-0.054328475,-0.046871625,9.812635,-0.053869538,-0.22385786
0.008522114,-0.055393737,-0.046871625,9.816227,-0.044292733,-0.23463176
0.008522114,-0.055393737,-0.04793689,9.811439,-0.044292733,-0.24540567
0.009587378,-0.054328475,-0.046871625,9.810242,-0.049081136,-0.22744916
0.008522114,-0.054328475,-0.046871625,9.812635,-0.045489833,-0.23942018
0.009587378,-0.05326321,-0.04793689,9.79827,-0.044292733,-0.22625206
0.009587378,-0.054328475,-0.046871625,9.810242,-0.049081136,-0.22505496
0.009587378,-0.05326321,-0.04793689,9.811439,-0.044292733,-0.23104046
0.008522114,-0.054328475,-0.04793689,9.812635,-0.044292733,-0.24181437
0.009587378,-0.054328475,-0.04793689,9.809045,-0.04309563,-0.23104046
0.009587378,-0.056459002,-0.046871625,9.818622,-0.04309563,-0.22026655
0.008522114,-0.05326321,-0.046871625,9.807847,-0.044292733,-0.23223756
0.008522114,-0.052197944,-0.04580636,9.816227,-0.044292733,-0.22744916
0.008522114,-0.054328475,-0.046871625,9.816227,-0.044292733,-0.23104046
0.010652642,-0.05326321,-0.04793689,9.816227,-0.045489833,-0.24420857
0.010652642,-0.054328475,-0.046871625,9.8198185,-0.044292733,-0.22744916
0.0074568493,-0.055393737,-0.046871625,9.817424,-0.044292733,-0.23942018
0.0063915853,-0.052197944,-0.046871625,9.805453,-0.047884032,-0.23104046
0.009587378,-0.052197944,-0.049002152,9.812635,-0.061052144,-0.24061728
0.0074568493,-0.052197944,-0.049002152,9.8198185,-0.050278235,-0.22505496
0.009587378,-0.05326321,-0.050067417,9.80665,-0.06344634,-0.23942018
0.009587378,-0.055393737,-0.049002152,9.822212,-0.076614454,-0.23463176
0.009587378,-0.05326321,-0.049002152,9.792285,-0.06943185,-0.22744916
0.010652642,-0.05326321,-0.04793689,9.812635,-0.045489833,-0.22625206
0.009587378,-0.05326321,-0.049002152,9.830592,-0.05267244,-0.25737667
0.009587378,-0.054328475,-0.049002152,9.807847,-0.051475335,-0.22744916
0.0074568493,-0.05326321,-0.050067417,9.825804,-0.045489833,-0.23702596
0.0074568493,-0.054328475,-0.050067417,9.810242,-0.047884032,-0.24540567
0.0074568493,-0.05326321,-0.049002152,9.801862,-0.046686932,-0.22625206
0.0074568493,-0.051132683,-0.04793689,9.813833,-0.045489833,-0.23463176
0.008522114,-0.052197944,-0.04793689,9.822212,-0.04309563,-0.21308395
0.008522114,-0.052197944,-0.049002152,9.824607,-0.044292733,-0.25019407
0.0074568493,-0.052197944,-0.04793689,9.827001,-0.04309563,-0.21308395
0.009587378,-0.054328475,-0.04793689,9.809045,-0.044292733,-0.22385786
0.010652642,-0.05326321,-0.049002152,9.813833,-0.04309563,-0.23343466
0.008522114,-0.05326321,-0.050067417,9.8198185,-0.04309563,-0.23942018
0.008522114,-0.05326321,-0.049002152,9.809045,-0.04309563,-0.22625206
0.009587378,-0.052197944,-0.04793689,9.81503,-0.044292733,-0.22625206
0.008522114,-0.05326321,-0.049002152,9.81503,-0.045489833,-0.21547815
0.0074568493,-0.05326321,-0.049002152,9.812635,-0.045489833,-0.22505496
0.009587378,-0.052197944,-0.049002152,9.822212,-0.046686932,-0.23343466
0.009587378,-0.054328475,-0.049002152,9.817424,-0.045489833,-0.23463176
0.009587378,-0.05326321,-0.050067417,9.817424,-0.045489833,-0.22266077
0.011717906,-0.05326321,-0.049002152,9.822212,-0.05746084,-0.25258827
0.008522114,-0.052197944,-0.049002152,9.799467,-0.050278235,-0.22984336
0.008522114,-0.05326321,-0.04793689,9.803059,-0.049081136,-0.23582886
0.010652642,-0.051132683,-0.04793689,9.793482,-0.061052144,-0.25258827
0.009587378,-0.050067417,-0.04793689,9.805453,-0.06464344,-0.24660277
0.0074568493,-0.05326321,-0.049002152,9.80665,-0.051475335,-0.24061728
0.0063915853,-0.05326321,-0.049002152,9.805453,-0.046686932,-0.23343466
0.008522114,-0.054328475,-0.050067417,9.828198,-0.047884032,-0.24660277
0.0074568493,-0.05326321,-0.049002152,9.827001,-0.044292733,-0.22984336
0.008522114,-0.052197944,-0.04793689,9.821015,-0.044292733,-0.24420857
0.009587378,-0.052197944,-0.04793689,9.799467,-0.046686932,-0.23223756
0.008522114,-0.054328475,-0.050067417,9.80665,-0.045489833,-0.23104046
0.0074568493,-0.05326321,-0.050067417,9.816227,-0.046686932,-0.22864626
0.0063915853,-0.052197944,-0.049002152,9.8198185,-0.044292733,-0.22505496
0.0063915853,-0.052197944,-0.049002152,9.82341,-0.04309563,-0.24181437
0.005326321,-0.051132683,-0.049002152,9.818622,-0.04070143,-0.23343466
0.005326321,-0.052197944,-0.050067417,9.807847,-0.044292733,-0.22984336
0.005326321,-0.054328475,-0.049002152,9.809045,-0.044292733,-0.23702596
0.004261057,-0.055393737,-0.049002152,9.813833,-0.044292733,-0.25857377
0.0063915853,-0.052197944,-0.049002152,9.821015,-0.044292733,-0.25378537
0.0063915853,-0.05326321,-0.049002152,9.82341,-0.044292733,-0.23223756
0.008522114,-0.052197944,-0.049002152,9.824607,-0.049081136,-0.24779987
0.009587378,-0.051132683,-0.049002152,9.813833,-0.045489833,-0.21787235
0.008522114,-0.05326321,-0.049002152,9.82341,-0.046686932,-0.23223756
0.0074568493,-0.05326321,-0.04793689,9.811439,-0.049081136,-0.24779987
0.0063915853,-0.052197944,-0.049002152,9.799467,-0.050278235,-0.24420857
0.0074568493,-0.05326321,-0.049002152,9.821015,-0.053869538,-0.260968
0.0063915853,-0.052197944,-0.049002152,9.812635,-0.051475335,-0.22625206
0.005326321,-0.05326321,-0.049002152,9.807847,-0.05267244,-0.24420857
0.005326321,-0.05326321,-0.050067417,9.81503,-0.06344634,-0.2633622
0.004261057,-0.05326321,-0.050067417,9.810242,-0.051475335,-0.23822308
0.005326321,-0.054328475,-0.049002152,9.813833,-0.05626374,-0.2633622
0.008522114,-0.052197944,-0.049002152,9.813833,-0.044292733,-0.25139117
0.008522114,-0.05326321,-0.049002152,9.821015,-0.045489833,-0.22984336
0.009587378,-0.054328475,-0.049002152,9.800665,-0.062249243,-0.2705448
0.009587378,-0.05326321,-0.046871625,9.8198185,-0.045489833,-0.21428105
0.008522114,-0.054328475,-0.04793689,9.834184,-0.053869538,-0.2825158
0.008522114,-0.05326321,-0.049002152,9.805453,-0.045489833,-0.22505496
0.009587378,-0.05326321,-0.04793689,9.800665,-0.04309563,-0.24779987
0.009587378,-0.052197944,-0.049002152,9.801862,-0.04309563,-0.22744916
0.010652642,-0.054328475,-0.049002152,9.822212,-0.044292733,-0.23582886
0.009587378,-0.054328475,-0.049002152,9.811439,-0.044292733,-0.23104046
0.008522114,-0.05326321,-0.049002152,9.81503,-0.044292733,-0.23343466
0.009587378,-0.054328475,-0.049002152,9.813833,-0.044292733,-0.22625206
0.008522114,-0.05326321,-0.04793689,9.812635,-0.044292733,-0.22984336
0.009587378,-0.054328475,-0.04793689,9.8198185,-0.044292733,-0.24420857
0.008522114,-0.05326321,-0.050067417,9.807847,-0.044292733,-0.22505496
0.009587378,-0.054328475,-0.050067417,9.818622,-0.049081136,-0.25617957
0.008522114,-0.052197944,-0.04793689,9.805453,-0.044292733,-0.23463176
0.008522114,-0.05326321,-0.050067417,9.80665,-0.047884032,-0.25857377
0.0063915853,-0.052197944,-0.049002152,9.818622,-0.047884032,-0.23343466
0.0063915853,-0.052197944,-0.049002152,9.818622,-0.047884032,-0.23343466
0.009587378,-0.054328475,-0.049002152,9.809045,-0.06703765,-0.2669535
0.009587378,-0.054328475,-0.049002152,9.809045,-0.06703765,-0.2669535
0.008522114,-0.05326321,-0.04793689,9.81503,-0.05626374,-0.2633622
0.009587378,-0.05326321,-0.04793689,9.799467,-0.05746084,-0.24301147
0.008522114,-0.05326321,-0.049002152,9.803059,-0.05626374,-0.23223756
0.008522114,-0.052197944,-0.050067417,9.810242,-0.050278235,-0.24779987
0.0074568493,-0.054328475,-0.051132683,9.812635,-0.05626374,-0.24660277
0.008522114,-0.052197944,-0.050067417,9.82341,-0.047884032,-0.23582886
0.0074568493,-0.052197944,-0.050067417,9.817424,-0.055066638,-0.2717419
0.0074568493,-0.052197944,-0.049002152,9.810242,-0.044292733,-0.23223756
0.008522114,-0.05326321,-0.049002152,9.828198,-0.045489833,-0.23223756
0.008522114,-0.052197944,-0.049002152,9.788693,-0.045489833,-0.24420857
0.010652642,-0.052197944,-0.050067417,9.811439,-0.04189853,-0.23702596
0.008522114,-0.05326321,-0.04793689,9.8198185,-0.044292733,-0.24899697
0.008522114,-0.052197944,-0.04793689,9.822212,-0.037110128,-0.23104046
0.009587378,-0.052197944,-0.050067417,9.82341,-0.04189853,-0.25258827
0.0063915853,-0.05326321,-0.050067417,9.824607,-0.044292733,-0.25139117
0.0063915853,-0.054328475,-0.049002152,9.813833,-0.044292733,-0.22984336
0.009587378,-0.05326321,-0.049002152,9.799467,-0.04309563,-0.24301147
0.009587378,-0.054328475,-0.04793689,9.794679,-0.044292733,-0.23942018
0.009587378,-0.05326321,-0.04793689,9.8042555,-0.045489833,-0.25139117
0.009587378,-0.052197944,-0.049002152,9.817424,-0.044292733,-0.22385786
0.009587378,-0.05326321,-0.049002152,9.829395,-0.046686932,-0.24899697
0.0074568493,-0.052197944,-0.049002152,9.822212,-0.044292733,-0.24540567
0.008522114,-0.052197944,-0.04793689,9.809045,-0.047884032,-0.24660277
0.008522114,-0.052197944,-0.04793689,9.817424,-0.049081136,-0.25019407
0.0074568493,-0.05326321,-0.050067417,9.7958765,-0.06584055,-0.24899697
0.008522114,-0.052197944,-0.04793689,9.809045,-0.06464344,-0.25258827
0.008522114,-0.052197944,-0.04793689,9.811439,-0.055066638,-0.25139117
0.010652642,-0.051132683,-0.04793689,9.809045,-0.055066638,-0.24779987
0.009587378,-0.052197944,-0.049002152,9.822212,-0.06464344,-0.25737667
0.008522114,-0.05326321,-0.049002152,9.794679,-0.06464344,-0.25617957
0.0074568493,-0.05326321,-0.049002152,9.82341,-0.051475335,-0.25019407
0.008522114,-0.05326321,-0.049002152,9.811439,-0.051475335,-0.23463176
0.009587378,-0.054328475,-0.04793689,9.813833,-0.046686932,-0.23582886
0.010652642,-0.054328475,-0.049002152,9.822212,-0.044292733,-0.22864626
0.009587378,-0.052197944,-0.04793689,9.816227,-0.044292733,-0.23343466
0.009587378,-0.052197944,-0.04793689,9.812635,-0.04309563,-0.23463176
0.008522114,-0.05326321,-0.04793689,9.81503,-0.04309563,-0.25258827
0.008522114,-0.05326321,-0.049002152,9.816227,-0.04309563,-0.25139117
0.0074568493,-0.05326321,-0.049002152,9.805453,-0.04309563,-0.260968
0.0074568493,-0.052197944,-0.04793689,9.805453,-0.044292733,-0.23223756
0.0063915853,-0.052197944,-0.049002152,9.811439,-0.044292733,-0.24420857
0.0074568493,-0.05326321,-0.049002152,9.818622,-0.04309563,-0.23104046
0.0074568493,-0.05326321,-0.04793689,9.824607,-0.044292733,-0.24779987
0.009587378,-0.05326321,-0.04793689,9.822212,-0.044292733,-0.24420857
0.009587378,-0.052197944,-0.04793689,9.829395,-0.044292733,-0.23942018
0.009587378,-0.05326321,-0.04793689,9.827001,-0.053869538,-0.2669535
0.0074568493,-0.05326321,-0.04793689,9.81503,-0.045489833,-0.25378537
0.009587378,-0.055393737,-0.04793689,9.810242,-0.050278235,-0.23702596
0.009587378,-0.05326321,-0.049002152,9.807847,-0.051475335,-0.260968
0.0063915853,-0.054328475,-0.04793689,9.79827,-0.06703765,-0.2633622
0.0063915853,-0.052197944,-0.050067417,9.818622,-0.059855044,-0.2813187
0.008522114,-0.055393737,-0.049002152,9.8198185,-0.050278235,-0.24420857
0.008522114,-0.054328475,-0.049002152,9.811439,-0.055066638,-0.25737667
0.0063915853,-0.05326321,-0.050067417,9.829395,-0.046686932,-0.23702596
0.0074568493,-0.054328475,-0.049002152,9.813833,-0.046686932,-0.25139117
0.008522114,-0.05326321,-0.049002152,9.822212,-0.050278235,-0.25258827
0.0063915853,-0.052197944,-0.049002152,9.811439,-0.050278235,-0.22625206
0.004261057,-0.05326321,-0.04793689,9.80665,-0.046686932,-0.2621651
0.0074568493,-0.052197944,-0.049002152,9.8042555,-0.044292733,-0.22625206
0.008522114,-0.051132683,-0.04793689,9.821015,-0.04309563,-0.23343466
0.008522114,-0.052197944,-0.049002152,9.811439,-0.04070143,-0.24540567
0.008522114,-0.052197944,-0.04793689,9.800665,-0.038307227,-0.23343466
0.009587378,-0.05326321,-0.050067417,9.81503,-0.04309563,-0.24061728
0.008522114,-0.05326321,-0.049002152,9.830592,-0.04309563,-0.24061728
0.008522114,-0.054328475,-0.049002152,9.813833,-0.044292733,-0.23942018
0.010652642,-0.05326321,-0.049002152,9.811439,-0.044292733,-0.22864626
0.009587378,-0.052197944,-0.049002152,9.81503,-0.044292733,-0.24181437
0.008522114,-0.05326321,-0.050067417,9.812635,-0.047884032,-0.25737667
0.008522114,-0.052197944,-0.04793689,9.821015,-0.053869538,-0.25258827
0.0074568493,-0.051132683,-0.04793689,9.812635,-0.061052144,-0.25498247
0.008522114,-0.05326321,-0.049002152,9.8042555,-0.062249243,-0.2645593
0.009587378,-0.05326321,-0.046871625,9.82341,-0.06464344,-0.2669535
0.009587378,-0.05326321,-0.049002152,9.8198185,-0.051475335,-0.25378537
0.009587378,-0.052197944,-0.050067417,9.824607,-0.05865794,-0.2657564
0.009587378,-0.051132683,-0.050067417,9.813833,-0.051475335,-0.25258827
0.009587378,-0.051132683,-0.050067417,9.800665,-0.053869538,-0.23942018
0.009587378,-0.05326321,-0.049002152,9.812635,-0.044292733,-0.22266077
0.009587378,-0.05326321,-0.049002152,9.813833,-0.044292733,-0.24301147
0.008522114,-0.052197944,-0.049002152,9.81503,-0.050278235,-0.25498247
0.009587378,-0.052197944,-0.049002152,9.805453,-0.045489833,-0.25617957
0.009587378,-0.05326321,-0.04793689,9.818622,-0.045489833,-0.24899697
0.009587378,-0.052197944,-0.04793689,9.807847,-0.04309563,-0.24420857
0.009587378,-0.052197944,-0.049002152,9.811439,-0.04309563,-0.23463176
0.0074568493,-0.052197944,-0.04793689,9.807847,-0.04309563,-0.23582886
0.008522114,-0.05326321,-0.049002152,9.811439,-0.039504327,-0.24899697
0.009587378,-0.05326321,-0.049002152,9.816227,-0.04070143,-0.23343466
0.010652642,-0.05326321,-0.04793689,9.822212,-0.04309563,-0.24660277
0.009587378,-0.052197944,-0.04793689,9.8198185,-0.04189853,-0.24899697
0.008522114,-0.05326321,-0.049002152,9.817424,-0.044292733,-0.23702596
0.009587378,-0.05326321,-0.050067417,9.82341,-0.046686932,-0.24779987
0.008522114,-0.05326321,-0.04793689,9.821015,-0.053869538,-0.2669535
0.009587378,-0.05326321,-0.049002152,9.835381,-0.050278235,-0.24540567
0.009587378,-0.052197944,-0.049002152,9.824607,-0.05267244,-0.25977087
0.008522114,-0.052197944,-0.049002152,9.817424,-0.053869538,-0.25737667
0.0074568493,-0.054328475,-0.050067417,9.824607,-0.06344634,-0.25977087
0.0074568493,-0.052197944,-0.049002152,9.816227,-0.050278235,-0.24660277
0.009587378,-0.05326321,-0.049002152,9.811439,-0.047884032,-0.24660277
0.009587378,-0.050067417,-0.04793689,9.812635,-0.061052144,-0.2657564
0.010652642,-0.052197944,-0.049002152,9.811439,-0.047884032,-0.23822308
0.009587378,-0.05326321,-0.049002152,9.805453,-0.047884032,-0.24061728
0.009587378,-0.05326321,-0.04793689,9.811439,-0.044292733,-0.22984336
0.008522114,-0.054328475,-0.04793689,9.816227,-0.045489833,-0.23463176
0.009587378,-0.05326321,-0.049002152,9.813833,-0.044292733,-0.2621651
0.009587378,-0.05326321,-0.04793689,9.817424,-0.04309563,-0.22385786
0.009587378,-0.05326321,-0.050067417,9.816227,-0.04309563,-0.23463176
0.008522114,-0.052197944,-0.049002152,9.830592,-0.04309563,-0.22864626
0.008522114,-0.05326321,-0.049002152,9.813833,-0.044292733,-0.260968
0.009587378,-0.052197944,-0.049002152,9.80665,-0.04309563,-0.23822308
0.010652642,-0.052197944,-0.04793689,9.812635,-0.04309563,-0.22864626
0.009587378,-0.051132683,-0.049002152,9.816227,-0.044292733,-0.23223756
0.0074568493,-0.05326321,-0.04793689,9.80665,-0.044292733,-0.23343466
0.009587378,-0.05326321,-0.046871625,9.830592,-0.046686932,-0.24301147
0.008522114,-0.052197944,-0.04793689,9.813833,-0.04309563,-0.23822308
0.009587378,-0.052197944,-0.049002152,9.811439,-0.046686932,-0.23702596
0.008522114,-0.052197944,-0.04793689,9.827001,-0.047884032,-0.24420857
0.008522114,-0.054328475,-0.04793689,9.80665,-0.055066638,-0.2621651
0.009587378,-0.052197944,-0.049002152,9.829395,-0.05746084,-0.25498247
0.009587378,-0.052197944,-0.049002152,9.810242,-0.05746084,-0.2633622
0.009587378,-0.05326321,-0.04793689,9.803059,-0.051475335,-0.25737667
0.009587378,-0.052197944,-0.04793689,9.830592,-0.055066638,-0.25617957
0.009587378,-0.052197944,-0.04793689,9.817424,-0.053869538,-0.25857377
0.009587378,-0.05326321,-0.050067417,9.813833,-0.059855044,-0.24899697
0.009587378,-0.05326321,-0.049002152,9.811439,-0.045489833,-0.23104046
0.009587378,-0.054328475,-0.04793689,9.818622,-0.047884032,-0.25378537
0.010652642,-0.052197944,-0.049002152,9.817424,-0.044292733,-0.22385786
0.009587378,-0.051132683,-0.04793689,9.822212,-0.046686932,-0.25139117
0.011717906,-0.052197944,-0.046871625,9.809045,-0.044292733,-0.22505496
0.012783171,-0.05326321,-0.04793689,9.8042555,-0.044292733,-0.23942018
0.009587378,-0.051132683,-0.046871625,9.809045,-0.044292733,-0.23463176
0.009587378,-0.05326321,-0.046871625,9.825804,-0.015562311,-0.20470424
0.012783171,-0.055393737,-0.04793689,9.827001,-0.053869538,-0.29448682
0.015978962,-0.049002152,-0.046871625,9.810242,-0.044292733,-0.17118542
0.013848434,-0.05326321,-0.04580636,9.81503,-0.04309563,-0.21547815
0.012783171,-0.054328475,-0.04793689,9.827001,-0.04309563,-0.23822308
0.008522114,-0.050067417,-0.049002152,9.821015,-0.04309563,-0.23104046
0.0074568493,-0.052197944,-0.049002152,9.80665,-0.044292733,-0.24420857
0.009587378,-0.05326321,-0.04793689,9.827001,-0.049081136,-0.25019407
0.009587378,-0.052197944,-0.04793689,9.8042555,-0.049081136,-0.2645593
0.011717906,-0.051132683,-0.046871625,9.817424,-0.062249243,-0.30885202
0.015978962,-0.04793689,-0.044741098,9.812635,-0.06943185,-0.30765492
0.011717906,-0.04048004,-0.043675832,9.824607,-0.08499416,-0.45609543
-0.02024002,-0.024501076,-0.04048004,9.816227,-0.12689269,-0.4417302
-0.025566341,-0.005326321,-0.031957924,9.812635,-0.076614454,-0.37588966
-0.050067417,0.011717906,-0.026631605,9.759963,-0.4441244,-0.748188
0.0010652642,0.08202534,0.008522114,9.835381,0.015562311,-0.089782566
-0.021305284,0.06391585,-0.004261057,9.834184,0.009576807,0.031124622
0.005326321,0.026631605,-0.018109491,9.82341,0.045489833,0.10654198
0.0031957927,-0.02024002,-0.03302319,9.859323,0.029927522,-0.04309563
-0.009587378,-0.056459002,-0.04793689,9.809045,-0.044292733,-0.22984336
-0.013848434,-0.06817691,-0.051132683,9.80665,-0.050278235,-0.30526072
-0.021305284,-0.07030743,-0.052197944,9.818622,-0.027533319,-0.19871874
-0.024501076,-0.08202534,-0.057524268,9.80665,-0.062249243,-0.23822308
-0.026631605,-0.09267799,-0.06072006,9.81503,-0.023942016,-0.20590134
-0.03302319,-0.102265365,-0.06604638,9.811439,-0.04309563,-0.18555063
-0.039414775,-0.115048535,-0.06924217,9.834184,-0.045489833,-0.23822308
-0.03302319,-0.12037485,-0.0713727,9.797073,-0.20350714,-0.6607997
0.042610567,-0.027696868,-0.028762134,9.7719345,-0.28491,-0.8762778
0.06498112,0.015978962,0.012783171,9.64983,-0.91338795,-0.8571242
0.031957924,0.054328475,0.102265365,8.933964,-3.3901896,-0.0
-0.061785325,0.042610567,0.37284246,8.677784,-2.7449522,-0.15442601
-0.03302319,0.04793689,0.729706,9.058462,-1.5825673,-0.7110779
-0.072437964,0.08415587,0.9608683,9.233239,-1.0055647,-1.2844892
-0.08096008,0.18109491,1.0908306,9.532514,-0.5626374,-1.7034745
0.023435812,0.29827398,1.1323758,9.962274,-0.32920274,-1.3180081
0.2705771,0.36325508,1.1132011,10.33936,-0.38307226,-1.7729063
0.3131877,0.4783036,1.0492853,10.029311,-0.49440265,-1.9716251
0.16405068,0.62531006,0.9789778,9.884461,-0.7134721,-2.066196
0.059654795,0.77764285,0.9363672,9.763555,-0.9911995,-2.1823149
0.22264022,0.90653986,0.9278451,9.661801,-1.151611,-2.2960393
0.46978152,1.1803128,0.91293144,9.591172,-1.2354081,-2.5941176
0.47723836,1.3411676,0.8873651,9.619903,-1.3263878,-2.5833437
0.5123921,1.4828478,0.86712503,10.06283,-1.472434,-2.100912
0.66792065,1.423193,0.85221136,10.117896,-1.0714053,-1.3156139
0.71585757,1.3028181,0.786165,9.506178,-1.1599907,-1.2533646
0.4612594,1.3134707,0.6828343,9.241618,-1.5873557,-1.2868834
0.33981928,1.3166666,0.6157227,9.662998,-2.111686,-1.2078748
0.37071195,1.2687297,0.57843846,9.911995,-2.315193,-1.1875241
0.37923405,1.177117,0.5656553,9.928755,-2.3546975,-1.2042835
0.33768874,1.072721,0.5550026,9.838972,-2.409764,-1.2856863
0.29614344,0.96939045,0.53795844,9.737218,-2.385822,-1.3012487
0.27803394,0.8575377,0.5113268,9.763555,-2.3355439,-1.3024458
0.18216018,0.55819845,0.45912886,9.721656,-2.3331497,-1.6172832
0.09587378,0.40266988,0.43569306,9.757569,-2.2697031,-1.7154455
0.042610567,0.22583601,0.41864884,9.794679,-2.3175871,-2.054225
0.0021305284,0.072437964,0.40586567,9.785102,-2.2361844,-2.3187842
0.018109491,-0.046871625,0.37284246,9.676167,-2.110489,-2.6264393
0.05858953,-0.11824433,0.32384032,9.519346,-1.99437,-2.8814218
0.100134835,-0.15126751,0.2769687,9.44752,-1.8902222,-3.1495724
0.12144012,-0.14700647,0.23755391,9.375694,-1.8614918,-3.3913867
0.14913699,-0.11717906,0.20985705,9.232041,-1.887828,-3.5434184
0.18002965,-0.06498112,0.19387808,9.23683,-1.9859903,-3.630807
0.2024002,-0.013848434,0.19387808,9.16261,-2.0937295,-3.7361517
0.19707388,0.044741098,0.20133494,9.053674,-2.2242134,-3.6487634
0.115048535,0.14061487,0.26631606,9.400833,-2.6024973,-3.570952
0.076699026,0.10759168,0.32384032,9.406818,-2.657564,-3.514688
0.0862864,0.07563376,0.38029933,9.321824,-2.7281928,-3.4931402
0.07776429,0.061785325,0.43888885,9.472659,-2.8455088,-3.2477345
0.06072006,0.04048004,0.5070658,9.360131,-2.7856536,-2.825158
0.06072006,0.04048004,0.5070658,9.360131,-2.7856536,-2.825158
-0.039414775,-0.15233278,0.64555013,9.3421755,-2.8502972,-2.5318682
-0.102265365,-0.27803394,0.72864074,9.326612,-2.873042,-2.5366566
-0.1725728,-0.40906146,0.8096008,9.3421755,-2.9999347,-2.5115175
-0.24501076,-0.54435,0.88523453,9.473856,-3.110068,-2.5079262
-0.26312026,-0.67644274,0.94488937,9.543288,-3.2429461,-2.695871
-0.2407497,-0.78083867,0.9661946,9.65821,-3.4739866,-2.9532478
-0.1161138,-0.842624,0.9566072,9.585187,-3.681085,-3.107674
-0.015978962,-0.81386185,0.9704557,8.798691,-3.5685577,-3.3435028
0.07989482,-0.7403586,1.0013484,8.505402,-3.5984852,-3.309984
0.074568495,-0.63170165,1.0428936,8.452729,-3.8738184,-3.039439
0.004261057,-0.54435,1.0855042,8.724471,-4.4364557,-2.707842
-0.08202534,-0.5006742,1.1132011,9.087193,-4.984728,-2.3523033
-0.14061487,-0.4814994,1.1291801,9.239224,-5.270835,-2.0745757
-0.09374325,-0.46765098,1.1430285,8.920795,-5.044583,-2.0578163
-0.09374325,-0.43888885,1.145159,8.589199,-4.927267,-1.7118542
-0.19813915,-0.4197141,1.1472895,8.173804,-4.820725,-1.3096284
-0.21411811,-0.44421518,1.1760517,8.002619,-4.8135424,-1.353921
-0.23542339,-0.4793689,1.2154665,8.080431,-4.9464207,-1.4508862
-0.26951185,-0.48895627,1.253816,7.8793178,-5.0960584,-1.483208
-0.2705771,-0.43356252,1.3582119,7.4627266,-5.6108117,-1.5921441
-0.26312026,-0.38882142,1.4498246,7.398083,-5.819107,-1.6711528
-0.26312026,-0.38882142,1.4498246,7.398083,-5.819107,-1.6711528
-0.4612594,-0.3685814,1.6788564,8.075643,-6.343437,-1.1851299
-0.4612594,-0.3685814,1.6788564,8.075643,-6.343437,-1.1851299
-0.54008895,-0.42930147,1.7544901,8.163031,-6.4583592,-0.79128367
-0.67005116,-0.3781688,2.0026968,7.2723875,-6.0645127,-0.59615624
-0.67005116,-0.3781688,2.0026968,7.2723875,-6.0645127,-0.59615624
-0.65620273,-0.29827398,2.0698082,6.7851677,-7.4627266,-2.007538
-0.78936076,-0.10652642,2.286057,5.955577,-7.177817,-1.5047557
-0.7925566,-0.024501076,2.5065668,7.37055,-6.5864487,-0.9888053
-0.6636596,-0.037284248,2.568352,7.651869,-6.4882865,-0.6667852
-0.61146164,-0.10333063,2.5363941,7.867347,-6.613982,-0.6548142
-0.45593306,-0.29401293,2.2370548,6.943185,-6.3350577,-0.58657944
-0.4048004,-0.4048004,2.0069578,7.08564,-6.397307,-0.736217
-0.32277507,-0.46338993,1.7512944,7.1251445,-6.870162,-0.8726865
-0.24181497,-0.47723836,1.5478289,7.050924,-7.559692,-1.292869
-0.1874865,-0.34940666,1.4029529,6.3470287,-8.12233,-1.2066777
-0.1459412,-0.14807172,1.310275,6.291962,-8.797494,-0.8403648
-0.15872437,0.049002152,1.2825781,5.7975593,-9.041702,0.1376666
-0.1459412,0.115048535,1.3049487,5.439626,-8.746018,1.1851299
-0.22477074,0.026631605,1.3390371,6.0836663,-8.401254,0.82001406
-0.3984088,-0.046871625,1.3315803,5.303157,-8.555679,0.7565677
-0.5347626,-0.13635382,1.3432982,4.9823337,-8.716091,0.36750996
-0.62744063,-0.1842907,1.3699298,4.83509,-8.504205,-0.046686932
-0.6082659,-0.16831174,1.3177319,5.2085857,-8.304289,-0.1604115
-0.53369737,-0.17470333,1.2144012,5.237316,-8.123527,-0.10534488
-0.45060676,-0.17044227,1.0546116,5.425261,-8.055291,-0.32561144
-0.36432037,-0.13635382,0.8799082,5.281609,-8.623915,-0.19153613
-0.27483815,-0.16085489,0.87032086,3.9252937,-9.585187,-0.07182605
-0.3270361,-0.25459814,1.0982873,4.0701427,-8.674192,-0.4285621
-0.32597086,-0.3131877,1.2367717,4.7656584,-7.7919292,-0.80804306
-0.32916665,-0.29614344,1.1984222,4.6782703,-7.65546,-0.89303726
-0.29720873,-0.2205097,1.0663295,4.283227,-7.717709,-0.58897364
-0.23116232,-0.17789912,0.90334404,4.4077253,-8.009802,-0.46208093
-0.1459412,-0.18002965,0.80214393,4.414908,-8.572439,-0.48243165
-0.011717906,-0.20133494,0.7648597,4.2461166,-8.838196,-0.7386112
-0.04580636,-0.24927182,0.7563376,4.5406036,-9.545682,-0.581791
-0.09374325,-0.28229502,0.7819039,4.4244847,-9.879673,-0.49919105
-0.09906957,-0.29720873,0.80533975,4.4113164,-9.39365,-0.6476316
-0.10972221,-0.22477074,0.72437966,4.3658266,-9.187749,-0.48482585
-0.07989482,-0.09480851,0.59441745,3.9504328,-9.581595,-0.1388637
-0.06924217,0.022370549,0.51984894,3.739743,-9.787497,-0.055066638
-0.028762134,0.087351665,0.5368931,3.264494,-9.743204,-0.04309563
-0.011717906,0.08415587,0.6018743,3.4093432,-9.601946,-0.1400608
-0.050067417,0.06711164,0.6711165,3.084929,-9.238028,-0.61052144
-0.14700647,0.17044227,0.6913565,2.7808652,-9.136273,-0.5279215
-0.23755391,0.33981928,0.72224915,2.5342624,-9.576807,-0.02873042
-0.2471413,0.45060676,0.80747026,2.5246856,-9.762358,0.6631939
-0.5368931,0.42930147,0.9203883,2.6791117,-9.557653,0.9744401
-0.52837104,0.19387808,1.0056094,2.742558,-9.959879,1.3455414
-0.55819845,0.031957924,1.0503505,2.9017725,-10.220847,1.6759412
-0.45593306,-0.2290318,1.1100053,2.882619,-9.854534,2.304419
-0.33129716,-0.6072006,1.1259843,2.6910827,-9.038112,1.1456255
-0.35792878,-0.826645,1.0396979,2.7353754,-8.41921,0.58298814
-0.37710354,-0.93317145,0.8926914,1.8435353,-9.179369,0.24899697
-0.39201722,-0.9661946,0.883104,1.7190368,-9.7719345,0.015562311
-0.44954148,-0.9299756,0.9928262,1.8602947,-9.661801,0.44771573
-0.4910868,-0.8649945,1.0503505,1.8626889,-9.443929,1.270124
-0.5123921,-0.84049344,1.0343715,1.9512744,-9.362526,1.9776106
-0.5187837,-0.87671244,0.9608683,2.0362685,-9.281123,1.9644425
-0.5145226,-0.9278451,0.8447545,1.8854338,-9.324219,1.7166426
-0.4793689,-0.9789778,0.58056897,1.6196774,-9.54209,1.1348516
-0.44847623,-0.9299756,0.42823622,1.4496891,-9.704897,0.94690675
-0.38029933,-0.8309061,0.2524676,1.400608,-9.980229,0.8714894
-0.29294765,-0.7030744,0.09906957,1.5251064,-10.362105,0.7422025
-0.17896439,-0.5720469,-0.0010652642,1.4700398,-10.601525,0.78888947
-0.061785325,-0.46765098,-0.034088455,1.377863,-10.693702,0.6691794
0.09054746,-0.38349512,-0.019174756,1.3180081,-10.623073,0.4345476
0.24394551,-0.29933923,0.02024002,1.353921,-10.486604,0.24420857
0.4165183,-0.22264022,0.076699026,1.2605472,-10.333375,-0.01316811
0.5411542,-0.15552858,0.17150754,1.6160861,-9.944317,-0.21428105
0.45912886,-0.09054746,0.28122973,0.7086837,-10.143036,-0.15801731
0.4814994,-0.037284248,0.33768874,0.24779987,-9.995792,-0.107739076
0.790426,0.072437964,0.33555824,0.6536171,-9.811439,0.016759412
0.81599236,0.14807172,0.30466557,0.8343793,-10.229227,-0.22744916
0.6956175,0.25992447,0.35792878,0.94211835,-10.967838,-0.01436521
0.6221143,0.34727612,0.5326321,0.8367735,-11.080365,0.7457938
0.7478155,0.3334277,0.78723025,0.8595184,-11.095928,1.4664485
0.91293144,0.24181497,1.0620685,1.4030021,-10.527305,1.8459295
0.9342367,0.1278317,1.2729907,-0.05626374,-9.270349,2.7401638
1.072721,-0.14913699,1.3337108,-0.20470424,-8.432379,2.7844565
1.2335759,-0.45593306,1.2815129,0.25617957,-8.647857,1.9608512
1.253816,-0.64341956,1.2016181,0.59974754,-9.119514,1.1947067
1.2879044,-0.7009438,1.1685948,0.8774749,-9.5492735,0.7338228
1.2634033,-0.67431223,1.1845738,0.79487497,-9.548077,0.6859388
0.78509974,-0.67644274,1.2144012,0.12808979,-9.08001,1.1121067
0.42077935,-0.7723166,1.1643338,-0.39264908,-9.26197,1.0390835
0.17470333,-0.9161272,1.1132011,-0.7721301,-9.543288,0.49919105
0.13635382,-1.0450242,1.0844389,-1.0319009,-9.118318,-1.2162545
0.12463591,-1.0066746,1.0333062,-0.6631939,-7.5213847,-3.1902738
0.06498112,-0.75740284,0.87032086,-0.6548142,-5.590461,-3.3123782
0.25140235,-0.4814994,0.5997437,-0.7398083,-5.5701103,-2.6324248
0.63276696,-0.28016448,0.34408033,-0.9720459,-7.3346367,-1.9189527
0.9097356,-0.16298543,0.22690128,-1.7310078,-10.548853,-0.7254431
1.0716558,-0.16831174,0.34727612,-1.7357962,-12.3277445,-0.25737667
1.1025485,-0.2673813,0.6018743,-1.8423382,-13.888764,0.08379706
0.8862998,-0.40053934,0.9427588,-1.8734628,-13.514071,-0.45609543
0.22477074,-0.4942826,1.5052183,-1.7657237,-12.063186,-1.5646108
0.4783036,-0.5347626,1.7694038,-1.7345991,-11.818976,-1.62686
1.8109491,-0.63276696,2.0463724,-2.0602105,-10.8864355,-2.8107927
3.177683,-0.5560679,2.246642,-1.7226281,-10.667366,-3.5206735
2.886866,-0.30466557,2.3659518,-2.0171149,-9.382876,-4.188656
2.1017663,-0.014913699,2.310558,-2.847903,-8.331821,-3.2070332
1.9600861,0.076699026,2.145442,-2.834735,-7.9032598,-2.0949266
2.064482,0.0,1.9174756,-2.56419,-7.6710224,-1.4784195
1.9462377,-0.11930959,1.6873785,-2.9364884,-7.9846625,-1.353921
1.5329152,-0.24288024,1.5350457,-3.4967315,-8.285135,-1.3838485
1.0269147,-0.39947408,1.4572815,-3.441665,-9.750386,-2.243367
0.51984894,-0.46765098,1.5552857,-3.6715083,-9.92636,-3.0945058
0.12463591,-0.41864884,1.7321196,-3.8283286,-9.624691,-3.4799721
-0.02024002,-0.25459814,1.9409114,-4.0797195,-8.158242,-3.8283286
0.004261057,-0.16511595,1.9302588,-4.6112323,-7.4746976,-3.9193082
-0.076699026,-0.07989482,1.8439723,-4.5645456,-7.27957,-4.0162735
-0.11185274,0.03302319,1.7363807,-4.2580876,-7.4004774,-3.8367083
-0.057524268,0.15659384,1.6756606,-4.72376,-7.3346367,-3.4763808
-0.06072006,0.24820656,1.6245279,-4.3502645,-7.430405,-3.2561142
-0.10759168,0.3504719,1.5851132,-4.735731,-7.192182,-2.6683378
-0.19813915,0.37710354,1.5339805,-5.127183,-7.055712,-2.3690627
-0.31105715,0.31744874,1.4647382,-5.0266266,-7.132327,-2.2996306
-0.35579824,0.2556634,1.4402372,-5.1547165,-7.153875,-2.0925324
-0.30146977,0.17896439,1.4892393,-5.3857565,-7.00304,-1.7848774
0.0063915853,0.05326321,1.5616773,-5.341464,-6.411672,-2.5210943
1.5670036,-0.004261057,1.5744605,-5.7065797,-6.4380083,-4.88058
1.0578073,0.21092232,1.4945657,-6.015432,-6.745663,-4.156334
0.75953335,0.3568635,1.423193,-5.7365074,-7.065289,-3.4991257
0.6966828,0.42823622,1.4253235,-5.8442464,-7.0461354,-2.9604304
0.75953335,0.4378236,1.459412,-5.9388175,-6.9611416,-2.2577322
0.6807038,0.3962783,1.4721951,-5.8705826,-6.8785415,-1.8423382
0.20559599,0.31425294,1.467934,-5.840655,-6.7887588,-1.4784195
-0.42610568,0.20346546,1.5062835,-5.523423,-6.6163764,-1.033098
-0.75101125,0.074568495,1.6426374,-5.9723363,-5.791574,-0.47405192
-0.7968176,-0.14700647,1.7811217,-6.55293,-4.818331,-0.4357447
-0.8245145,-0.43036672,1.8056228,-6.566098,-3.9372647,-1.0295067
-0.8980177,-0.6423543,1.6873785,-6.3721676,-2.765303,-2.2529438
-1.2335759,-0.7520765,0.9321062,-7.264008,-2.9640217,-3.4213142
-1.1909654,-0.7233144,0.54861104,-7.189788,-4.5082817,-4.8374844
-0.79575235,-0.53050154,0.3685814,-7.7608047,-6.087258,-5.6982
-0.29720873,-0.2535329,0.39201722,-7.916428,-7.1023993,-5.8095303
-0.1427454,0.07563376,0.51984894,-7.100005,-8.379706,-4.4244847
-0.90547454,0.4346278,0.693487,-7.563283,-11.218032,-1.7776948
-1.0620685,0.46232465,1.06846,-7.7608047,-9.55885,-0.59974754
-0.40266988,0.25779393,1.4157361,-7.265205,-6.803124,-1.2617443
0.26631606,0.09267799,1.6277237,-7.4495587,-4.459201,-1.8028339
0.56991637,0.031957924,1.6735301,-7.514202,-3.252523,-2.1404164
0.6636596,0.021305284,1.5712647,-7.309498,-2.4540567,-2.5558102
0.8490156,0.07989482,1.391235,-7.4387846,-2.3104045,-3.514688
1.1728559,0.39095196,1.072721,-9.572019,-3.4380736,-4.405331
1.2548813,0.5358279,0.98004305,-9.783905,-3.5972881,-4.724957
1.1941612,0.5890911,0.73290175,-9.500193,-2.9700072,-4.225766
1.1014832,0.6135922,0.4942826,-9.091981,-2.980781,-3.632004
1.064199,0.6508764,0.31105715,-8.76637,-3.3518825,-2.9293058
1.0130663,0.6263754,0.2173139,-8.783129,-3.594894,-2.553416
0.9874999,0.5816343,0.18855177,-8.908825,-3.870227,-2.2409728
0.9832389,0.5177184,0.20559599,-9.002198,-4.0318356,-1.7274165
0.9821736,0.40586567,0.2407497,-8.889671,-4.1922474,-1.5562311
0.9459546,0.28336027,0.28336027,-8.711303,-4.413711,-1.6519991
0.9022788,0.19068229,0.38136458,-8.874108,-4.346673,-1.7381904
0.8841693,0.1161138,0.46552044,-9.11712,-4.1419687,-1.7848774
0.9203883,0.059654795,0.43356252,-8.374918,-3.2872388,-2.5486276
1.0066746,0.057524268,0.42930147,-8.479065,-3.4021606,-3.1004913
1.0183926,0.09054746,0.4644552,-8.655039,-3.3913867,-3.3291376
0.87245136,0.17896439,0.4910868,-8.578424,-3.0142999,-3.4272997
0.6913565,0.28762132,0.47510782,-8.463503,-2.6922798,-3.2932243
0.5166531,0.38456038,0.40693092,-8.520964,-2.36188,-2.9053638
0.3099919,0.4367583,0.29720873,-8.049306,-0.36631286,-2.0973208
0.17150754,0.42610568,0.089482196,-7.9714947,-0.45968673,-1.3359646
0.07350323,0.33236244,-0.11824433,-8.146272,-2.5570073,-1.1013328
0.2854908,0.17363806,-0.21198757,-8.926781,-4.722563,-1.2318168
0.38456038,0.026631605,-0.13422328,-9.233239,-8.388085,-1.5454572
0.38882142,-0.10333063,0.23861918,-8.859743,-9.436746,-2.148796
0.3483414,-0.19387808,0.76272917,-8.846576,-4.201824,-2.7844565
-0.4825647,-0.024501076,0.71479225,-7.8637557,-0.7697359,-4.771644
-0.88523453,0.24820656,0.36218983,-8.046912,-1.9452889,-4.927267
-1.1185274,0.51558787,0.14061487,-8.732851,-2.6324248,-4.1695023
-1.2761865,0.65939856,0.06711164,-8.846576,-2.7569232,-3.1890767
-1.382713,0.709466,0.041545305,-8.640674,-2.2062569,-2.7138276
-1.3944309,0.76699024,-0.04048004,-8.456321,-2.1631613,-2.135628
-1.3241234,0.7829692,-0.1161138,-8.572439,-2.4349031,-1.9740193
-1.2186623,0.8032092,-0.14061487,-9.192537,-2.5462334,-1.9165585
-1.1377021,0.8490156,-0.14807172,-10.278308,-2.814384,-1.7286136
-1.0993526,0.86712503,-0.15978964,-10.632649,-2.6527755,-1.0079589
-1.0599378,0.7233144,-0.2503371,-10.0269165,-2.3427265,-0.62847793
-0.92145354,0.4974784,-0.39201722,-9.39365,-2.5474305,-0.51116204
-0.5997437,0.1576591,-0.5709816,-9.217676,-3.084929,-0.9780314
-0.5006742,0.24820656,-0.38242984,-8.347384,-4.2401314,-1.1300632
-0.40053934,0.5539374,-0.057524268,-8.881291,-3.7181952,-1.4760253
-0.38349512,0.8287755,0.12889697,-9.101558,-3.1723173,-1.4951789
-0.4580636,1.064199,0.1874865,-9.081207,-2.7617116,-0.81283146
-0.6466154,1.1174622,0.20346546,-9.084799,-2.8754363,-0.44771573
-0.82025343,1.0918958,0.20453073,-9.2787285,-3.228581,-0.38067806
-0.84049344,1.0918958,0.23116232,-9.459491,-3.5075054,0.007182605
-0.7616639,1.0535463,0.29720873,-9.69532,-3.5697548,0.79487497
-0.5858953,0.919323,0.40373513,-9.882068,-3.594894,1.578976
-0.26951185,0.6913565,0.51984894,-9.821015,-3.3782187,2.2254105
0.15872437,0.35899404,0.5976132,-9.607931,-3.0597897,2.3953989
0.15872437,0.35899404,0.5976132,-9.607931,-3.0597897,2.3953989
1.226119,-0.56245947,0.7254449,-8.690952,-3.514688,-0.10055647
1.310275,-0.6902912,0.8181229,-8.6334915,-3.7565024,-1.1013328
1.3028181,-0.6902912,0.9363672,-8.301894,-3.4919431,-1.5658079
1.2335759,-0.6348975,1.0375674,-8.09719,-3.289633,-1.6819267
1.1675296,-0.5922869,1.1249189,-8.078036,-3.0897174,-1.5490485
1.06846,-0.5890911,1.1899002,-8.093599,-2.5462334,-1.5741876
0.95554197,-0.5816343,1.221858,-8.230068,-2.2349873,-1.8602947
0.89056087,-0.4942826,1.2303802,-8.578424,-2.2960393,-2.0578163
0.83197135,-0.35579824,1.2484896,-8.567651,-1.9249382,-1.62686
0.83197135,-0.35579824,1.2484896,-8.567651,-1.9249382,-1.62686
0.62744063,-0.42930147,1.1824433,-8.899248,-1.757344,-0.91937345
0.79894817,-0.6913565,1.181378,-8.993818,-1.9764135,-1.3551182
0.79894817,-0.6913565,1.181378,-8.993818,-1.9764135,-1.3551182
0.8980177,-0.6103964,1.3550161,-9.531317,-1.0809821,-1.7824832
0.842624,-0.46658573,1.3518202,-9.848549,-0.49919105,-1.7525556
0.8980177,-0.32810137,1.2857739,-10.419566,-0.1328782,-1.4987702
1.0247842,-0.26951185,1.1526159,-11.089942,-0.20949265,-1.5107412
1.2058791,-0.28762132,0.9470199,-11.394006,0.16519992,-1.9955671
1.1281148,-0.26525077,0.69242173,-11.490971,0.41299978,-2.9017725
0.6913565,-0.10439589,0.508131,-10.924743,0.45370123,-3.8606503
0.6913565,-0.10439589,0.508131,-10.924743,0.45370123,-3.8606503
-0.21624863,0.4825647,0.2737729,-8.887277,0.4285621,-3.4680011
-0.54008895,0.5528721,0.11930959,-8.76996,-0.25258827,-3.277662
-0.81386185,0.5773732,0.061785325,-8.950723,-0.82480246,-3.4715924
-1.0460894,0.61146164,0.074568495,-9.896433,0.17956513,-2.337938
-1.306014,0.6285059,-0.028762134,-10.261548,0.6488287,-1.5191209
-1.5542204,0.62317955,-0.19600861,-10.44231,0.89902276,-0.59017074
-1.7193364,0.57843846,-0.35792878,-11.145009,0.28491,-0.077811554
-1.6021574,0.5741774,-0.46658573,-10.601525,0.007182605,0.35194764
-1.2389022,0.5475458,-0.5496763,-9.988609,-0.016759412,0.62847793
-0.9044093,0.4910868,-0.6487459,-10.150218,-0.33039984,0.8798691
-0.67431223,0.37071195,-0.6263754,-8.662222,-3.0142999,1.2940661
-0.67431223,0.37071195,-0.6263754,-8.662222,-3.0142999,1.2940661
-0.5006742,0.17683385,-0.21092232,-7.8493905,-2.3116016,0.2813187
-0.38456038,0.16085489,0.1278317,-6.9970546,-0.34356794,-0.21547815
-0.4814994,0.28655607,0.29933923,-6.7983356,-0.015562311,-0.031124622
-0.66579014,0.46552044,0.43569306,-7.6351094,-0.12330139,0.7110779
-0.47191203,0.5187837,0.6487459,-9.886856,0.18435353,1.0666169
-0.16085489,0.4612594,0.56245947,-12.799402,1.1731589,0.81881696
-0.072437964,0.19068229,0.21411811,-14.991294,-0.14963761,-0.077811554
-0.17896439,-0.10333063,-0.044741098,-13.680469,0.25498247,-1.1025299
-0.21837915,-0.13422328,-0.1992044,-10.527305,1.4173675,-1.4628572
-0.26525077,-0.0713727,-0.3984088,-8.913613,0.4165911,-1.8387469
-0.3451456,0.028762134,-0.46232465,-8.588001,-1.2006922,-1.9716251
-0.41438776,0.18109491,-0.30146977,-8.750807,-1.1875241,-1.4173675
-0.48043415,0.28016448,-0.12037485,-9.372103,-0.2825158,-0.6619968
-0.5006742,0.34408033,-0.04793689,-9.901221,0.17357962,0.10175357
-0.41864884,0.38349512,-0.054328475,-9.908403,0.06344634,0.59376204
-0.27909923,0.38349512,-0.061785325,-9.702502,-0.22505496,0.5686229
0.13848434,0.34940666,0.049002152,-9.915586,-1.0079589,0.20350714
0.2290318,0.30253503,0.10333063,-9.829395,-0.39863458,-0.20829555
0.29401293,0.25992447,0.09161272,-9.594764,-0.089782566,-0.47884035
0.32810137,0.24394551,0.039414775,-9.659407,-0.30047232,-0.5734113
0.24394551,0.20985705,0.0074568493,-9.8677025,-0.4165911,-0.48003745
0.09267799,0.14381066,0.008522114,-10.132261,-0.40701428,-0.35434186
0.013848434,0.072437964,0.0063915853,-10.035296,-0.34117374,-0.10175357
0.026631605,-0.005326321,0.009587378,-9.981427,-0.22864626,-0.020350715
0.085221134,-0.0713727,0.009587378,-9.414001,-0.45250413,0.24181437
0.022370549,-0.13209276,0.072437964,-9.591172,-0.47524905,-0.36631286
-0.100134835,-0.087351665,0.10865695,-9.653421,-0.15203181,-0.6536171
-0.23861918,0.037284248,0.07989482,-9.489418,0.107739076,-0.5303157
-0.4761731,0.33449295,-0.005326321,-9.788693,-0.22505496,1.0115502
-0.28975186,0.27270764,0.0,-9.621099,-0.38067806,0.81761986
-0.10333063,0.16831174,0.042610567,-10.176555,-0.37469256,0.6596026
-0.46978152,-0.16831174,0.005326321,-10.226832,-0.48243165,-0.5255273
-0.47191203,-0.13635382,0.012783171,-9.697714,0.0047884034,-0.6584055
-0.38882142,-0.052197944,-0.012783171,-9.634268,-0.06344634,-0.4333505
-0.35792878,0.013848434,-0.038349513,-9.720459,-0.61890113,-0.1316811
-0.20772652,0.04048004,-0.0074568493,-9.5385,-0.6991069,0.04189853
-0.098004304,0.049002152,0.044741098,-9.767146,-0.6907272,0.07182605
-0.030892663,0.05326321,0.09374325,-9.849746,-0.6667852,0.25498247
0.050067417,0.042610567,0.14168014,-9.792285,-0.37948096,0.4285621
0.12463591,0.017044228,0.16724648,-9.4535055,-0.15682021,0.62129533
0.115048535,-0.07989482,-0.09054746,-6.4368114,1.8375498,0.842759
0.10439589,-0.1459412,-0.39734355,-7.1622543,1.7932571,1.4544775
-0.20559599,-0.25779393,-0.64981115,-8.730456,0.5662287,1.3156139
-0.46658573,-0.36645088,-0.8000134,-10.102334,-0.8343793,0.7062895
-0.38775617,-0.431432,-0.7637944,-11.21444,-1.839944,-0.07062895
-0.21624863,-0.42610568,-0.6178532,-11.969811,-2.0374656,-0.8583213
-0.14061487,-0.3099919,-0.2173139,-12.188881,-3.405752,-0.7290344
-0.33555824,-0.18109491,0.2705771,-10.33936,1.3946224,-0.51235914
0.018109491,-0.14807172,0.17683385,-10.031705,0.59136784,-0.24779987
0.074568495,-0.1161138,0.07882955,-9.957485,-0.04189853,-0.16998832
0.024501076,-0.089482196,0.050067417,-9.880871,0.4405331,0.092176765
0.098004304,-0.100134835,-0.022370549,-9.850943,0.39624038,0.28491
0.2471413,-0.18002965,-0.04048004,-9.89763,-0.46447513,0.33399114
0.24394551,-0.1725728,-0.046871625,-9.544485,-0.40701428,-0.59735334
0.1992044,-0.10865695,-0.09374325,-9.727641,-0.641646,-0.5662287
0.12996224,-0.04048004,-0.098004304,-9.617508,-0.9959879,0.18195933
0.16085489,-0.04793689,-0.039414775,-9.436746,-1.3347675,0.093373865
0.22583601,-0.06924217,0.055393737,-9.57561,-0.6500258,-0.1604115
0.15872437,-0.05326321,0.112918004,-9.6845455,-0.4165911,-0.06464344
0.061785325,-0.039414775,0.13635382,-9.785102,-0.25977087,0.10055647
0.04793689,-0.05326321,0.1427454,-9.696517,-0.46926352,-0.14604631
0.056459002,-0.041545305,0.16085489,-9.5385,-0.91578215,-0.22266077
0.1874865,-0.035153717,0.21944442,-9.390059,-0.9983821,-0.04309563
0.27909923,-0.035153717,0.3099919,-9.388862,-0.91219085,-0.4405331
0.112918004,0.018109491,0.40266988,-9.81503,-0.32202014,-0.50757074
-0.098004304,0.115048535,0.29294765,-10.09994,4.4196963,0.60693014
-0.19600861,0.089482196,-0.09906957,-9.856929,-1.541866,1.3718776
-0.057524268,-0.05326321,-0.015978962,-9.836577,0.676362,0.35314476
0.024501076,-0.112918004,-0.038349513,-9.728839,-0.36152446,-0.94810385
0.005326321,-0.021305284,-0.056459002,-9.773131,0.1436521,-0.22744916
-0.055393737,0.024501076,-0.08309061,-9.783905,-0.59615624,-0.074220255
-0.08309061,0.028762134,-0.06924217,-9.801862,-0.019153614,0.24181437
-0.10333063,0.005326321,-0.05326321,-9.7958765,-0.051475335,0.29448682
-0.21837915,-0.011717906,-0.057524268,-9.77792,-0.010773907,-0.01316811
-0.27270764,-0.0074568493,-0.05858953,-9.78989,-0.18555063,0.16759412
-0.14913699,-0.022370549,-0.04580636,-9.8042555,-0.09696517,0.24301147
-0.07882955,-0.044741098,-0.043675832,-9.80665,-0.053869538,0.06943185
0.017044228,-0.037284248,-0.051132683,-9.759963,-0.093373865,-0.021547815
0.017044228,-0.024501076,-0.051132683,-9.770737,-0.11492168,0.05746084
0.019174756,-0.023435812,-0.051132683,-9.776723,-0.12330139,0.079008654
0.029827397,-0.024501076,-0.052197944,-9.775525,-0.15562311,0.14724341
0.06604638,-0.031957924,-0.052197944,-9.762358,-0.1352724,-0.034715924
0.07776429,-0.029827397,-0.051132683,-9.79827,-0.06823475,0.025139118
0.03302319,-0.023435812,-0.05326321,-9.793482,-0.12808979,0.23702596
0.014913699,-0.037284248,-0.051132683,-9.782708,-0.1352724,0.24540567
0.03302319,-0.05858953,-0.046871625,-9.785102,-0.142455,0.19991584
0.06498112,-0.06924217,-0.04580636,-9.7863,-0.10654198,0.03232172
0.087351665,-0.06498112,-0.046871625,-9.770737,-0.11731588,0.016759412
0.08096008,-0.056459002,-0.046871625,-9.768343,-0.12210429,0.11731588
0.046871625,-0.06604638,-0.046871625,-9.792285,-0.12090719,0.10654198
0.046871625,-0.072437964,-0.046871625,-9.7863,-0.16879122,0.3172317
0.074568495,-0.09374325,-0.04580636,-9.811439,-0.17357962,0.37828386
0.09906957,-0.12570117,-0.044741098,-9.773131,-0.11971009,0.11851298
0.102265365,-0.13954961,-0.044741098,-9.738416,-0.031124622,-0.16998832
0.06498112,-0.11717906,-0.046871625,-9.76116,-0.04309563,-0.19273324
0.031957924,-0.08841693,-0.049002152,-9.758766,-0.06943185,-0.25139117
0.0074568493,-0.057524268,-0.050067417,-9.783905,-0.1352724,0.10295067
0.0063915853,-0.05858953,-0.051132683,-9.7958765,-0.12090719,0.15801731
0.02024002,-0.0713727,-0.049002152,-9.774328,-0.11731588,0.11851298
0.034088455,-0.07776429,-0.04580636,-9.791088,-0.10295067,-0.0023942017
0.038349513,-0.076699026,-0.044741098,-9.782708,-0.077811554,-0.15322891
0.037284248,-0.050067417,-0.046871625,-9.788693,-0.12330139,0.04309563
0.06391585,-0.050067417,-0.046871625,-9.782708,-0.092176765,0.0023942017
0.089482196,-0.046871625,-0.046871625,-9.776723,-0.15083471,0.0011971008
0.13315803,-0.049002152,-0.04793689,-9.776723,-0.06823475,-0.04309563
0.19813915,-0.052197944,-0.046871625,-9.765948,-0.08499416,-0.050278235
0.19707388,-0.04580636,-0.04793689,-9.792285,-0.15801731,0.074220255
0.18002965,-0.050067417,-0.046871625,-9.7719345,-0.108936176,-0.037110128
0.18322544,-0.046871625,-0.050067417,-9.782708,-0.18315643,0.1436521
0.089482196,-0.049002152,-0.050067417,-9.787497,-0.10175357,0.02633622
0.1012001,-0.05858953,-0.04793689,-9.7803135,-0.11372458,0.0035913025
0.12463591,-0.056459002,-0.04793689,-9.782708,-0.090979666,-0.031124622
0.12570117,-0.054328475,-0.049002152,-9.775525,-0.142455,0.093373865
0.14168014,-0.059654795,-0.04793689,-9.7479925,-0.1412579,-0.0047884034
0.09054746,-0.06817691,-0.044741098,-9.763555,-0.04309563,-0.10534488
0.11185274,-0.057524268,-0.050067417,-9.783905,-0.15203181,0.130484
0.052197944,-0.059654795,-0.04793689,-9.803059,-0.1352724,0.19512744
0.014913699,-0.07350323,-0.043675832,-9.774328,-0.11133038,0.008379706
0.014913699,-0.07350323,-0.043675832,-9.774328,-0.11133038,0.008379706
0.013848434,-0.057524268,-0.04793689,-9.76954,-0.093373865,0.0011971008
0.010652642,-0.05326321,-0.046871625,-9.781511,-0.08259996,-0.023942016
0.008522114,-0.051132683,-0.046871625,-9.776723,-0.08379706,0.044292733
0.0074568493,-0.052197944,-0.046871625,-9.794679,-0.11252748,0.035913024
0.010652642,-0.055393737,-0.046871625,-9.77792,-0.089782566,-0.019153614
0.011717906,-0.055393737,-0.046871625,-9.78989,-0.10654198,0.038307227
0.014913699,-0.056459002,-0.04580636,-9.767146,-0.11133038,-0.008379706
0.026631605,-0.054328475,-0.046871625,-9.783905,-0.12449849,0.034715924
0.023435812,-0.057524268,-0.046871625,-9.775525,-0.09696517,-0.020350715
0.021305284,-0.056459002,-0.046871625,-9.783905,-0.12090719,0.005985504
0.014913699,-0.054328475,-0.049002152,-9.776723,-0.107739076,-0.0
0.015978962,-0.052197944,-0.050067417,-9.785102,-0.1436521,0.037110128
0.015978962,-0.054328475,-0.050067417,-9.792285,-0.12330139,0.008379706
0.019174756,-0.054328475,-0.049002152,-9.782708,-0.12330139,0.01436521
0.026631605,-0.055393737,-0.049002152,-9.7863,-0.12090719,0.027533319
0.030892663,-0.055393737,-0.049002152,-9.8042555,-0.10414778,0.010773907
0.034088455,-0.054328475,-0.049002152,-9.7958765,-0.11971009,0.010773907
0.030892663,-0.054328475,-0.04793689,-9.773131,-0.10654198,0.008379706
0.026631605,-0.056459002,-0.049002152,-9.7563715,-0.10654198,0.023942016
0.022370549,-0.05326321,-0.04793689,-9.773131,-0.10175357,-0.005985504
0.02024002,-0.05326321,-0.049002152,-9.783905,-0.09696517,0.01316811
0.019174756,-0.05326321,-0.049002152,-9.7803135,-0.08619126,0.022744916
0.019174756,-0.052197944,-0.049002152,-9.776723,-0.08738836,0.016759412
0.015978962,-0.051132683,-0.049002152,-9.7719345,-0.09696517,-0.0035913025
0.012783171,-0.051132683,-0.050067417,-9.770737,-0.10414778,0.008379706
0.011717906,-0.052197944,-0.051132683,-9.77792,-0.09935937,0.016759412
0.012783171,-0.05326321,-0.051132683,-9.782708,-0.09935937,0.009576807
0.012783171,-0.05326321,-0.050067417,-9.770737,-0.10534488,-0.0047884034
0.009587378,-0.050067417,-0.049002152,-9.803059,-0.110133275,0.016759412
0.008522114,-0.052197944,-0.04793689,-9.794679,-0.11492168,0.0023942017
0.0063915853,-0.051132683,-0.049002152,-9.788693,-0.12569559,0.031124622
0.0063915853,-0.051132683,-0.049002152,-9.788693,-0.12569559,0.031124622
0.009587378,-0.052197944,-0.049002152,-9.762358,-0.12210429,0.021547815
0.010652642,-0.052197944,-0.049002152,-9.770737,-0.11851298,0.010773907
0.010652642,-0.05326321,-0.04793689,-9.77792,-0.11372458,0.005985504
0.010652642,-0.051132683,-0.049002152,-9.809045,-0.11851298,0.005985504
0.008522114,-0.051132683,-0.049002152,-9.78989,-0.12090719,0.021547815
0.008522114,-0.051132683,-0.049002152,-9.792285,-0.11611878,0.023942016
0.0074568493,-0.051132683,-0.050067417,-9.794679,-0.11971009,0.02873042
0.009587378,-0.051132683,-0.050067417,-9.7803135,-0.11133038,0.0035913025
0.012783171,-0.052197944,-0.049002152,-9.773131,-0.11133038,0.005985504
0.015978962,-0.052197944,-0.049002152,-9.785102,-0.094570965,0.009576807
0.017044228,-0.052197944,-0.049002152,-9.77792,-0.08499416,0.01436521
0.021305284,-0.052197944,-0.050067417,-9.773131,-0.094570965,0.020350715
0.026631605,-0.051132683,-0.050067417,-9.776723,-0.093373865,0.01436521
0.021305284,-0.051132683,-0.050067417,-9.767146,-0.093373865,0.029927522
0.013848434,-0.051132683,-0.051132683,-9.78989,-0.094570965,0.010773907
0.0074568493,-0.051132683,-0.050067417,-9.775525,-0.094570965,0.021547815
0.004261057,-0.051132683,-0.050067417,-9.7803135,-0.094570965,0.025139118
0.004261057,-0.052197944,-0.04793689,-9.787497,-0.10295067,0.01316811
0.005326321,-0.052197944,-0.049002152,-9.785102,-0.11372458,0.020350715
0.009587378,-0.052197944,-0.050067417,-9.783905,-0.10534488,0.01316811
0.012783171,-0.05326321,-0.04793689,-9.7803135,-0.094570965,0.009576807
0.012783171,-0.052197944,-0.049002152,-9.782708,-0.10055647,0.010773907
0.011717906,-0.05326321,-0.050067417,-9.776723,-0.10414778,0.021547815
0.011717906,-0.05326321,-0.050067417,-9.776723,-0.10414778,0.021547815
0.008522114,-0.051132683,-0.052197944,-9.779117,-0.11252748,0.009576807
0.0074568493,-0.05326321,-0.050067417,-9.7803135,-0.11492168,0.008379706
0.008522114,-0.052197944,-0.051132683,-9.768343,-0.1400608,0.0035913025
0.008522114,-0.052197944,-0.050067417,-9.776723,-0.12449849,0.009576807
0.0074568493,-0.05326321,-0.049002152,-9.776723,-0.12569559,0.017956512
0.0074568493,-0.05326321,-0.049002152,-9.775525,-0.108936176,0.010773907
0.009587378,-0.05326321,-0.050067417,-9.779117,-0.12808979,-0.0011971008
0.011717906,-0.051132683,-0.050067417,-9.779117,-0.10175357,0.008379706
0.013848434,-0.051132683,-0.049002152,-9.776723,-0.110133275,0.01436521
0.011717906,-0.050067417,-0.049002152,-9.792285,-0.11611878,0.01316811
0.010652642,-0.050067417,-0.049002152,-9.781511,-0.108936176,0.025139118
0.010652642,-0.052197944,-0.050067417,-9.788693,-0.10175357,0.029927522
0.009587378,-0.05326321,-0.049002152,-9.785102,-0.08619126,0.025139118
0.009587378,-0.051132683,-0.049002152,-9.78989,-0.09816227,0.017956512
0.012783171,-0.052197944,-0.049002152,-9.7803135,-0.08738836,0.02633622
0.014913699,-0.05326321,-0.049002152,-9.765948,-0.094570965,0.025139118
0.017044228,-0.051132683,-0.050067417,-9.76954,-0.10295067,0.0011971008
0.015978962,-0.050067417,-0.050067417,-9.791088,-0.108936176,0.01316811
0.015978962,-0.050067417,-0.050067417,-9.7863,-0.090979666,0.020350715
0.015978962,-0.052197944,-0.051132683,-9.7863,-0.09816227,0.005985504
0.013848434,-0.051132683,-0.050067417,-9.781511,-0.107739076,0.03232172
0.010652642,-0.04793689,-0.049002152,-9.7803135,-0.107739076,0.04309563
0.0074568493,-0.051132683,-0.049002152,-9.78989,-0.11611878,0.031124622
0.0063915853,-0.051132683,-0.049002152,-9.781511,-0.12210429,0.029927522
0.010652642,-0.052197944,-0.046871625,-9.765948,-0.11492168,0.0011971008
0.010652642,-0.054328475,-0.046871625,-9.779117,-0.12449849,0.0011971008
0.008522114,-0.05326321,-0.04580636,-9.782708,-0.11133038,0.0023942017
0.0074568493,-0.052197944,-0.049002152,-9.768343,-0.12808979,0.023942016
0.008522114,-0.052197944,-0.049002152,-9.781511,-0.09935937,0.01436521
0.0074568493,-0.051132683,-0.046871625,-9.7863,-0.12090719,0.025139118
0.0063915853,-0.052197944,-0.04793689,-9.76954,-0.11372458,0.015562311
0.0063915853,-0.052197944,-0.04793689,-9.76954,-0.11372458,0.015562311
0.0063915853,-0.052197944,-0.04793689,-9.779117,-0.11611878,0.025139118
0.0063915853,-0.054328475,-0.04793689,-9.80665,-0.10175357,0.025139118
0.0063915853,-0.05326321,-0.04793689,-9.770737,-0.10295067,0.034715924
0.005326321,-0.05326321,-0.04793689,-9.774328,-0.09816227,0.016759412
0.0074568493,-0.054328475,-0.049002152,-9.774328,-0.107739076,0.025139118
0.0063915853,-0.052197944,-0.049002152,-9.779117,-0.08738836,0.017956512
0.0063915853,-0.052197944,-0.04793689,-9.776723,-0.08738836,0.016759412
0.008522114,-0.05326321,-0.046871625,-9.7563715,-0.10295067,-0.0011971008
0.008522114,-0.052197944,-0.04793689,-9.7719345,-0.08619126,0.015562311
0.008522114,-0.052197944,-0.04793689,-9.7719345,-0.10055647,0.005985504
0.008522114,-0.052197944,-0.04793689,-9.7719345,-0.10055647,0.005985504
0.0074568493,-0.051132683,-0.049002152,-9.793482,-0.11731588,0.035913024
0.008522114,-0.054328475,-0.050067417,-9.7803135,-0.10654198,0.031124622
0.005326321,-0.054328475,-0.049002152,-9.7803135,-0.11492168,0.027533319
0.0063915853,-0.054328475,-0.04793689,-9.779117,-0.107739076,0.019153614
0.008522114,-0.05326321,-0.049002152,-9.7719345,-0.10414778,0.011971008
0.008522114,-0.05326321,-0.049002152,-9.7719345,-0.10414778,0.011971008
0.009587378,-0.05326321,-0.049002152,-9.762358,-0.108936176,0.021547815
0.008522114,-0.05326321,-0.049002152,-9.78989,-0.12808979,0.02633622
0.0074568493,-0.05326321,-0.050067417,-9.799467,-0.11731588,0.02873042
0.0074568493,-0.052197944,-0.04793689,-9.791088,-0.12569559,0.045489833
0.0063915853,-0.052197944,-0.04793689,-9.782708,-0.1352724,0.02873042
0.008522114,-0.052197944,-0.049002152,-9.800665,-0.11372458,0.031124622
0.008522114,-0.05326321,-0.04793689,-9.773131,-0.12928689,0.015562311
0.008522114,-0.05326321,-0.04793689,-9.767146,-0.110133275,0.031124622
0.009587378,-0.054328475,-0.049002152,-9.776723,-0.110133275,0.031124622
0.008522114,-0.05326321,-0.049002152,-9.797073,-0.11971009,0.029927522
0.009587378,-0.052197944,-0.04793689,-9.78989,-0.10295067,0.022744916
0.009587378,-0.051132683,-0.04793689,-9.779117,-0.09816227,0.04189853
0.008522114,-0.052197944,-0.049002152,-9.779117,-0.10654198,0.029927522
0.008522114,-0.054328475,-0.04793689,-9.775525,-0.09816227,0.04189853
0.010652642,-0.051132683,-0.049002152,-9.788693,-0.10295067,0.017956512
0.011717906,-0.051132683,-0.050067417,-9.7863,-0.09935937,0.025139118
0.010652642,-0.05326321,-0.049002152,-9.797073,-0.11611878,0.038307227
0.008522114,-0.052197944,-0.050067417,-9.77792,-0.09696517,0.017956512
0.009587378,-0.051132683,-0.050067417,-9.794679,-0.11611878,0.033518825
0.009587378,-0.052197944,-0.049002152,-9.797073,-0.11611878,0.039504327
0.008522114,-0.052197944,-0.049002152,-9.77792,-0.094570965,0.022744916
0.008522114,-0.052197944,-0.049002152,-9.773131,-0.093373865,0.02873042
0.0074568493,-0.052197944,-0.050067417,-9.763555,-0.1316811,0.029927522
0.008522114,-0.05326321,-0.049002152,-9.7719345,-0.108936176,0.044292733
0.008522114,-0.054328475,-0.049002152,-9.773131,-0.11611878,0.021547815
0.008522114,-0.051132683,-0.050067417,-9.781511,-0.11372458,0.03232172
0.008522114,-0.052197944,-0.050067417,-9.787497,-0.11492168,0.02873042
0.0074568493,-0.052197944,-0.050067417,-9.792285,-0.12330139,0.044292733
0.0074568493,-0.051132683,-0.050067417,-9.792285,-0.1316811,0.021547815
0.0074568493,-0.050067417,-0.049002152,-9.785102,-0.12210429,0.034715924
0.0063915853,-0.052197944,-0.04793689,-9.77792,-0.11372458,0.017956512
0.0063915853,-0.052197944,-0.046871625,-9.76954,-0.11133038,0.022744916
0.010652642,-0.054328475,-0.051132683,-9.77792,-0.10414778,0.010773907
0.010652642,-0.054328475,-0.049002152,-9.797073,-0.11731588,0.034715924
0.009587378,-0.052197944,-0.049002152,-9.782708,-0.10534488,0.02873042
0.009587378,-0.052197944,-0.049002152,-9.776723,-0.12449849,0.016759412
0.009587378,-0.05326321,-0.049002152,-9.76954,-0.09816227,0.031124622
0.009587378,-0.049002152,-0.049002152,-9.7863,-0.10295067,0.017956512
0.009587378,-0.05326321,-0.04793689,-9.7863,-0.094570965,0.022744916
0.010652642,-0.052197944,-0.04793689,-9.776723,-0.11133038,0.029927522
0.010652642,-0.052197944,-0.050067417,-9.768343,-0.10175357,0.02633622
0.008522114,-0.052197944,-0.049002152,-9.774328,-0.08259996,0.023942016
0.008522114,-0.05326321,-0.049002152,-9.782708,-0.089782566,0.02633622
0.0074568493,-0.05326321,-0.049002152,-9.7863,-0.08259996,0.02633622
0.0074568493,-0.05326321,-0.049002152,-9.78989,-0.09816227,0.025139118
0.009587378,-0.052197944,-0.050067417,-9.773131,-0.11133038,0.02633622
0.010652642,-0.05326321,-0.049002152,-9.7863,-0.11252748,0.027533319
0.010652642,-0.052197944,-0.04793689,-9.7803135,-0.11611878,0.020350715
0.008522114,-0.052197944,-0.049002152,-9.7719345,-0.12330139,0.035913024
0.009587378,-0.052197944,-0.049002152,-9.770737,-0.10654198,0.017956512
0.009587378,-0.051132683,-0.050067417,-9.7863,-0.12689269,0.029927522
0.0074568493,-0.051132683,-0.050067417,-9.79827,-0.11611878,0.033518825
0.0074568493,-0.052197944,-0.050067417,-9.764751,-0.1328782,0.021547815
0.008522114,-0.05326321,-0.049002152,-9.7719345,-0.11252748,0.02633622
0.008522114,-0.051132683,-0.04793689,-9.783905,-0.10414778,0.029927522
0.0063915853,-0.052197944,-0.04793689,-9.77792,-0.12210429,0.022744916
0.009587378,-0.054328475,-0.049002152,-9.776723,-0.09696517,0.021547815
0.008522114,-0.05326321,-0.046871625,-9.773131,-0.11372458,0.023942016
0.010652642,-0.05326321,-0.04793689,-9.768343,-0.11133038,0.027533319
0.010652642,-0.052197944,-0.04793689,-9.7803135,-0.088585466,0.01436521
0.010652642,-0.05326321,-0.046871625,-9.7803135,-0.095768064,0.029927522
0.009587378,-0.051132683,-0.049002152,-9.768343,-0.09696517,0.020350715
0.0074568493,-0.052197944,-0.049002152,-9.785102,-0.092176765,0.034715924
0.0063915853,-0.051132683,-0.049002152,-9.781511,-0.090979666,0.019153614
0.008522114,-0.05326321,-0.049002152,-9.782708,-0.095768064,0.04070143
0.008522114,-0.051132683,-0.050067417,-9.792285,-0.110133275,0.02633622
0.008522114,-0.051132683,-0.050067417,-9.791088,-0.10414778,0.019153614
0.010652642,-0.052197944,-0.050067417,-9.785102,-0.10055647,0.04189853
0.008522114,-0.054328475,-0.049002152,-9.776723,-0.10654198,0.017956512
0.0063915853,-0.052197944,-0.04793689,-9.782708,-0.09816227,0.04189853
0.008522114,-0.052197944,-0.049002152,-9.7803135,-0.12689269,0.034715924
0.010652642,-0.05326321,-0.049002152,-9.776723,-0.12210429,0.029927522
0.008522114,-0.05326321,-0.049002152,-9.773131,-0.11611878,0.023942016
0.009587378,-0.052197944,-0.049002152,-9.781511,-0.12090719,0.022744916
0.008522114,-0.052197944,-0.050067417,-9.774328,-0.11611878,0.023942016
0.0074568493,-0.05326321,-0.051132683,-9.7803135,-0.12808979,0.037110128
0.0063915853,-0.054328475,-0.04793689,-9.781511,-0.108936176,0.019153614
0.0063915853,-0.05326321,-0.049002152,-9.7719345,-0.11372458,0.035913024
0.0074568493,-0.054328475,-0.04793689,-9.776723,-0.11851298,0.03232172
0.0074568493,-0.05326321,-0.050067417,-9.7863,-0.110133275,0.034715924
0.0074568493,-0.054328475,-0.049002152,-9.793482,-0.110133275,0.029927522
